Log Count,Time Stamp,Acceleration x,Acceleration y,Acceleration z,Gyro x,Gyro y,Gyro z,Vertical Speed,Desired Height,Actual Height,Throttle,Desired Pitch,Actual Pitch,Pitch Adjustment,Desired Roll,Actual Roll,Roll Adjustment,Desired Yaw,Actual Yaw,Yaw Adjustment,Blob x-coord,
1,385.835217,-0.001953,-0.000195,1.006152,-0.215611,-0.013737,-0.114838,0,0,26.452,0,0,0.118964,0,0,0.104159,0,0,0.04733,0,0,160
2,385.835763,-0.001953,-0.000195,1.006152,0.140029,-0.013737,0.103891,330.649994,0,26.452,0,0,0.118951,0,0,0.104159,0,0,0.047387,0,0,160
3,385.836207,-0.005859,-0.000195,1.006152,-0.215611,0.26096,0.103891,330.649994,0,26.452,0,0,0.119209,0,0,0.103987,0,0,0.047433,0,0,160
4,385.836574,-0.005859,0.003711,1.006152,0.051119,-0.013737,0.103891,330.649994,0,26.452,0,0,0.119346,0,0,0.104077,0,0,0.047471,0,0,160
5,385.836956,-0.005859,0.003711,1.006152,-0.126701,0.169394,-0.114838,330.649994,0,26.452,0,0,0.119552,0,0,0.104099,0,0,0.047427,0,0,160
6,385.837316,-0.005859,0.003711,1.006152,-0.037791,0.077829,0.103891,330.649994,0,26.452,0,0,0.119722,0,0,0.104157,0,0,0.047465,0,0,160
7,385.83767,-0.005859,0.003711,1.006152,-0.126701,0.077829,-0.114838,330.649994,0,26.452,0,0,0.119891,0,0,0.104183,0,0,0.047424,0,0,160
8,385.838016,-0.005859,0.003711,1.006152,0.228939,0.077829,0.103891,330.649994,0,26.452,0,0,0.120059,0,0,0.104333,0,0,0.04746,0,0,160
9,385.838387,-0.005859,-0.000195,1.006152,0.051119,0.077829,0.103891,330.649994,0,26.452,0,0,0.120229,0,0,0.104275,0,0,0.047499,0,0,160
10,385.838741,-0.005859,-0.000195,1.006152,0.051119,-0.013737,0.103891,330.650055,0,26.452,0,0,0.120365,0,0,0.104217,0,0,0.047535,0,0,160
11,385.839096,-0.001953,-0.000195,1.002246,-0.215611,0.169394,-0.114838,330.650055,0,26.452,0,0,0.12042,0,0,0.104064,0,0,0.047495,0,0,160
12,385.839499,-0.001953,-0.004102,0.99834,0.051119,0.169394,0.103891,330.650055,0,26.452,0,0,0.120483,0,0,0.10386,0,0,0.047536,0,0,160
13,385.839886,-0.001953,-0.004102,1.002246,0.140029,-0.013737,-0.114838,330.650055,0,26.452,0,0,0.120471,0,0,0.10369,0,0,0.047492,0,0,160
14,385.840493,0.001953,-0.000195,0.99834,-0.037791,0.077829,0.103891,330.650055,0,26.452,0,0,0.120365,0,0,0.103591,0,0,0.047555,0,0,160
15,385.840883,0.001953,-0.000195,0.99834,-0.037791,-0.013737,-0.114838,330.650055,0,26.452,0,0,0.120205,0,0,0.1035,0,0,0.04751,0,0,160
16,385.841308,0.001953,-0.000195,0.99834,-0.037791,0.077829,0.103891,330.650055,0,26.452,0,0,0.120084,0,0,0.103408,0,0,0.047554,0,0,160
17,385.84167,0.001953,-0.000195,1.002246,0.140029,-0.105303,-0.114838,330.650055,0,26.452,0,0,0.119893,0,0,0.103383,0,0,0.047513,0,0,160
18,385.842019,0.001953,-0.000195,0.99834,-0.037791,-0.105303,0.103891,0,0,26.452,0,0,0.119702,0,0,0.103294,0,0,0.047549,0,0,160
19,385.842364,0.001953,-0.000195,0.99834,-0.215611,0.169394,0.103891,0,0,26.452,0,0,0.119607,0,0,0.103144,0,0,0.047585,0,0,160
20,385.842727,0.001953,-0.000195,1.002246,-0.126701,0.077829,-0.114838,0,0,26.452,0,0,0.119482,0,0,0.103022,0,0,0.047543,0,0,160
21,385.843233,-0.001953,-0.000195,1.002246,0.051119,0.077829,0.103891,0,0,26.452,0,0,0.119516,0,0,0.102972,0,0,0.047596,0,0,160
22,385.843614,0.001953,-0.000195,1.002246,0.140029,-0.013737,0.103891,0,0,26.452,0,0,0.119357,0,0,0.10295,0,0,0.047635,0,0,160
23,385.843965,0.001953,-0.000195,1.002246,0.140029,-0.013737,0.103891,0,0,26.452,0,0,0.119199,0,0,0.102923,0,0,0.047672,0,0,160
24,385.844373,0.001953,-0.004102,1.006152,-0.126701,-0.105303,0.103891,0,0,26.452,0,0,0.119003,0,0,0.102648,0,0,0.047714,0,0,160
25,385.844725,0.001953,-0.004102,1.006152,0.228939,-0.105303,-0.114838,0,0,26.452,0,0,0.118813,0,0,0.102505,0,0,0.047674,0,0,160
26,385.851104,-0.001953,-0.004102,1.006152,0.051119,-0.105303,0.103891,0,0,26.452,0,0,0.118137,0,0,0.102605,0,0,0.048337,0,0,160
27,385.851569,-0.001953,-0.004102,1.006152,-0.037791,-0.013737,-0.114838,0,0,26.452,0,0,0.118126,0,0,0.102361,0,0,0.048283,0,0,160
28,385.851944,-0.001953,-0.004102,1.006152,0.228939,-0.013737,-0.114838,0,0,26.452,0,0,0.118116,0,0,0.102221,0,0,0.04824,0,0,160
29,385.852324,-0.001953,-0.000195,1.002246,-0.037791,-0.013737,-0.114838,0,0,26.452,0,0,0.118106,0,0,0.10213,0,0,0.048196,0,0,160
30,385.852672,-0.001953,-0.000195,1.006152,-0.126701,-0.013737,0.103891,0,0,26.452,0,0,0.118097,0,0,0.10201,0,0,0.048233,0,0,160
31,385.853013,-0.001953,-0.000195,1.002246,0.051119,-0.013737,-0.114838,0,0,26.452,0,0,0.118088,0,0,0.101951,0,0,0.048193,0,0,160
32,385.853354,-0.001953,-0.000195,1.002246,0.051119,-0.105303,0.103891,0,0,26.452,0,0,0.118048,0,0,0.101892,0,0,0.048229,0,0,160
33,385.853712,-0.005859,-0.000195,1.002246,0.051119,0.169394,0.103891,0,0,26.452,0,0,0.118254,0,0,0.101834,0,0,0.048266,0,0,160
34,385.854054,-0.005859,-0.000195,1.002246,0.051119,0.352525,-0.114838,0,0,26.452,0,0,0.118521,0,0,0.101775,0,0,0.048227,0,0,160
35,385.854445,-0.005859,0.003711,1.002246,0.051119,0.169394,-0.114838,0,0,26.452,0,0,0.118733,0,0,0.10187,0,0,0.048182,0,0,160
36,385.854792,-0.005859,0.003711,1.002246,0.051119,-0.013737,-0.114838,0,0,26.452,0,0,0.118874,0,0,0.101962,0,0,0.048142,0,0,160
37,385.855154,-0.005859,0.003711,0.99834,-0.037791,0.077829,-0.114838,0,0,26.452,0,0,0.119049,0,0,0.102023,0,0,0.048101,0,0,160
38,385.856493,-0.005859,-0.000195,0.99834,0.051119,0.26096,0.103891,0,0,26.452,0,0,0.119545,0,0,0.102015,0,0,0.04824,0,0,160
39,385.856913,-0.001953,-0.000195,0.99834,0.317849,-0.196868,-0.114838,0,0,26.452,0,0,0.119457,0,0,0.102071,0,0,0.048191,0,0,160
40,385.857271,-0.001953,-0.000195,0.99834,-0.215611,-0.105303,-0.114838,0,0,26.452,0,0,0.119414,0,0,0.101918,0,0,0.04815,0,0,160
41,385.860187,-0.001953,-0.000195,0.99834,0.140029,-0.013737,0.103891,0,0,26.452,0,0,0.119369,0,0,0.102249,0,0,0.048453,0,0,160
42,385.86061,-0.001953,-0.000195,0.994434,0.228939,0.169394,0.103891,0,0,26.452,0,0,0.119436,0,0,0.102268,0,0,0.048497,0,0,160
43,385.86122,0.001953,-0.000195,0.994434,0.140029,-0.105303,-0.114838,0,0,26.452,0,0,0.119214,0,0,0.102276,0,0,0.048427,0,0,160
44,385.861605,-0.001953,-0.000195,0.99834,0.051119,0.077829,-0.114838,0,0,26.452,0,0,0.119239,0,0,0.102219,0,0,0.048383,0,0,160
45,385.861963,0.001953,-0.000195,0.99834,0.140029,0.169394,0.103891,0,0,26.452,0,0,0.119142,0,0,0.102191,0,0,0.04842,0,0,160
46,385.862331,-0.001953,-0.000195,1.002246,0.051119,-0.196868,0.103891,0,0,26.452,0,0,0.119065,0,0,0.102133,0,0,0.048458,0,0,160
47,385.865443,-0.001953,-0.000195,1.002246,0.140029,-0.105303,-0.114838,0,0,26.452,0,0,0.118732,0,0,0.10249,0,0,0.048101,0,0,160
48,385.865871,-0.001953,-0.000195,1.002246,0.140029,0.077829,-0.114838,0,0,26.452,0,0,0.118761,0,0,0.102472,0,0,0.048052,0,0,160
49,385.866232,-0.001953,-0.000195,1.002246,-0.215611,-0.013737,-0.114838,0,0,26.452,0,0,0.118751,0,0,0.102317,0,0,0.04801,0,0,160
50,385.866577,-0.001953,-0.000195,1.006152,0.051119,-0.105303,0.103891,0,0,26.452,0,0,0.118709,0,0,0.102256,0,0,0.048046,0,0,160
51,385.866927,-0.005859,-0.000195,1.006152,-0.215611,0.077829,0.103891,0,0,26.452,0,0,0.118884,0,0,0.102103,0,0,0.048083,0,0,160
52,385.867446,-0.005859,-0.000195,1.006152,0.051119,-0.013737,-0.114838,0,0,26.452,0,0,0.119024,0,0,0.102052,0,0,0.048023,0,0,160
53,385.867834,-0.005859,-0.004102,1.010059,-0.126701,-0.013737,-0.114838,0,0,26.452,0,0,0.119165,0,0,0.101773,0,0,0.047978,0,0,160
54,385.868188,-0.005859,-0.000195,1.006152,0.228939,0.077829,0.103891,0,0,26.452,0,0,0.11934,0,0,0.101776,0,0,0.048015,0,0,160
55,385.868534,-0.005859,-0.000195,1.006152,-0.037791,-0.105303,0.103891,0,0,26.452,0,0,0.119451,0,0,0.101686,0,0,0.048051,0,0,160
56,385.868897,-0.009766,-0.004102,1.006152,-0.304522,0.169394,-0.114838,0,0,26.452,0,0,0.119812,0,0,0.101345,0,0,0.048009,0,0,160
57,385.869295,-0.005859,-0.000195,1.006152,-0.037791,0.26096,0.103891,0,0,26.452,0,0,0.120063,0,0,0.101253,0,0,0.048051,0,0,160
58,385.869644,-0.005859,-0.000195,1.006152,-0.037791,0.169394,-0.114838,0,0,26.452,0,0,0.120269,0,0,0.101162,0,0,0.048011,0,0,160
59,385.870186,-0.005859,-0.000195,1.002246,-0.037791,0.077829,-0.114838,0,0,26.452,0,0,0.120458,0,0,0.101065,0,0,0.047948,0,0,160
60,385.870582,-0.005859,-0.000195,1.002246,0.140029,-0.105303,-0.114838,0,0,26.452,0,0,0.120564,0,0,0.101043,0,0,0.047903,0,0,160
61,385.870965,-0.001953,-0.000195,1.002246,0.051119,-0.105303,-0.114838,0,0,26.452,0,0,0.120518,0,0,0.100985,0,0,0.047859,0,0,160
62,385.871322,-0.001953,-0.000195,0.99834,0.140029,-0.013737,0.103891,0,0,26.452,0,0,0.120507,0,0,0.100958,0,0,0.047896,0,0,160
63,385.871688,-0.001953,-0.000195,0.99834,-0.037791,-0.105303,0.103891,0,0,26.452,0,0,0.120463,0,0,0.100867,0,0,0.047934,0,0,160
64,385.872222,-0.001953,-0.000195,0.99834,-0.037791,-0.013737,0.103891,0,0,26.452,0,0,0.12045,0,0,0.100769,0,0,0.04799,0,0,160
65,385.872603,-0.001953,-0.000195,0.99834,-0.037791,0.169394,0.103891,0,0,26.452,0,0,0.120509,0,0,0.100678,0,0,0.048029,0,0,160
66,385.872952,-0.001953,-0.000195,1.002246,0.051119,-0.013737,0.103891,0,0,26.452,0,0,0.120498,0,0,0.100618,0,0,0.048065,0,0,160
67,385.873329,-0.001953,-0.000195,1.002246,-0.037791,0.077829,0.103891,0,0,26.452,0,0,0.120521,0,0,0.100527,0,0,0.048105,0,0,160
68,385.873674,-0.001953,-0.000195,1.002246,0.051119,-0.105303,-0.114838,0,0,26.452,0,0,0.120479,0,0,0.100468,0,0,0.048065,0,0,160
69,385.874015,-0.001953,-0.000195,1.006152,-0.037791,0.077829,0.103891,0,0,26.452,0,0,0.120499,0,0,0.100378,0,0,0.0481,0,0,160
70,385.874406,-0.001953,-0.000195,1.006152,0.228939,-0.013737,0.103891,0,0,26.452,0,0,0.120487,0,0,0.10039,0,0,0.048141,0,0,160
71,385.874754,-0.001953,-0.000195,1.006152,-0.215611,-0.013737,0.103891,0,0,26.452,0,0,0.120476,0,0,0.100239,0,0,0.048177,0,0,160
72,385.875093,-0.001953,-0.000195,1.006152,-0.215611,0.26096,0.103891,0,0,26.452,0,0,0.120558,0,0,0.100089,0,0,0.048212,0,0,160
73,385.87543,-0.001953,-0.000195,1.006152,-0.215611,-0.013737,0.103891,0,0,26.452,0,0,0.120547,0,0,0.099939,0,0,0.048247,0,0,160
74,385.875766,-0.001953,-0.000195,1.006152,0.051119,0.077829,0.103891,0,0,26.452,0,0,0.120567,0,0,0.09988,0,0,0.048282,0,0,160
75,385.876136,-0.001953,-0.000195,1.006152,-0.037791,-0.013737,0.103891,0,0,26.452,0,0,0.120556,0,0,0.099789,0,0,0.048321,0,0,160
76,385.876478,-0.001953,-0.000195,1.002246,0.051119,-0.013737,0.103891,0,0,26.452,0,0,0.120545,0,0,0.09973,0,0,0.048356,0,0,160
77,385.876815,-0.001953,-0.000195,1.002246,-0.215611,0.077829,0.103891,0,0,26.452,0,0,0.120565,0,0,0.099581,0,0,0.048391,0,0,160
78,385.877152,-0.001953,-0.000195,1.002246,-0.126701,-0.105303,0.103891,0,0,26.452,0,0,0.120523,0,0,0.099462,0,0,0.048426,0,0,160
79,385.877519,-0.001953,-0.000195,1.002246,0.140029,0.169394,0.103891,0,0,26.452,0,0,0.120579,0,0,0.099437,0,0,0.048464,0,0,160
80,385.87786,-0.001953,-0.000195,1.002246,0.051119,-0.013737,0.103891,0,0,26.452,0,0,0.120569,0,0,0.099378,0,0,0.0485,0,0,160
81,385.878198,-0.001953,-0.000195,1.002246,-0.215611,-0.105303,0.103891,0,0,26.452,0,0,0.120527,0,0,0.099229,0,0,0.048535,0,0,160
82,385.878534,-0.001953,-0.000195,1.002246,-0.215611,0.077829,0.103891,0.424957,0,26.486,0,0,0.120547,0,0,0.09908,0,0,0.04857,0,0,160
83,385.878898,0.001953,-0.000195,1.002246,-0.037791,0.077829,0.103891,0.424957,0,26.486,0,0,0.120415,0,0,0.09899,0,0,0.048608,0,0,160
84,385.8793,0.001953,-0.000195,1.002246,-0.215611,0.169394,0.103891,0.424957,0,26.486,0,0,0.120323,0,0,0.098827,0,0,0.048649,0,0,160
85,385.879646,-0.001953,-0.000195,1.002246,-0.215611,0.26096,0.103891,0.424957,0,26.486,0,0,0.120407,0,0,0.098677,0,0,0.048685,0,0,160
86,385.880343,-0.001953,-0.000195,1.002246,0.228939,0.169394,0.103891,0.424957,0,26.486,0,0,0.120519,0,0,0.09876,0,0,0.048758,0,0,160
87,385.880735,-0.001953,-0.000195,1.002246,0.140029,0.077829,0.103891,0.424957,0,26.486,0,0,0.120544,0,0,0.098738,0,0,0.048799,0,0,160
88,385.881139,-0.001953,-0.000195,1.002246,-0.126701,0.077829,0.103891,0.424957,0,26.486,0,0,0.120569,0,0,0.098611,0,0,0.048841,0,0,160
89,385.881487,-0.001953,-0.000195,1.002246,-0.037791,-0.013737,0.103891,0.424957,0,26.486,0,0,0.120558,0,0,0.098522,0,0,0.048877,0,0,160
90,385.881828,-0.001953,-0.000195,1.002246,-0.037791,-0.105303,0.103891,0.425053,0,26.486,0,0,0.120516,0,0,0.098433,0,0,0.048912,0,0,160
91,385.882173,-0.005859,-0.000195,1.002246,0.051119,-0.013737,0.103891,0.425053,0,26.486,0,0,0.12066,0,0,0.098375,0,0,0.048948,0,0,160
92,385.882527,-0.005859,-0.000195,1.002246,-0.126701,-0.105303,0.103891,0.425053,0,26.486,0,0,0.120771,0,0,0.098254,0,0,0.048985,0,0,160
93,385.882869,-0.005859,-0.000195,1.002246,-0.304522,-0.105303,0.103891,0.425053,0,26.486,0,0,0.120883,0,0,0.098074,0,0,0.04902,0,0,160
94,385.883205,-0.005859,-0.000195,1.006152,-0.215611,-0.013737,-0.114838,0.425053,0,26.486,0,0,0.121025,0,0,0.097926,0,0,0.048982,0,0,160
95,385.883538,-0.005859,-0.000195,1.006152,-0.126701,-0.013737,0.103891,0.425053,0,26.486,0,0,0.121168,0,0,0.097808,0,0,0.049016,0,0,160
96,385.884047,-0.001953,-0.000195,1.002246,-0.126701,-0.105303,0.103891,0.425053,0,26.486,0,0,0.121108,0,0,0.097668,0,0,0.049069,0,0,160
97,385.884497,-0.005859,-0.000195,1.002246,0.051119,-0.105303,0.103891,0.425053,0,26.486,0,0,0.121209,0,0,0.097615,0,0,0.049116,0,0,160
98,385.884858,-0.001953,-0.000195,1.002246,0.051119,-0.013737,0.103891,-0.424957,0,26.452,0,0,0.121197,0,0,0.097558,0,0,0.049153,0,0,160
99,385.885212,-0.001953,-0.000195,1.002246,0.051119,-0.105303,0.103891,-0.424957,0,26.452,0,0,0.121153,0,0,0.097501,0,0,0.04919,0,0,160
100,385.885585,-0.001953,-0.000195,1.002246,0.140029,-0.105303,0.103891,-0.424957,0,26.452,0,0,0.121108,0,0,0.097478,0,0,0.049229,0,0,160
101,385.885953,-0.001953,-0.000195,1.002246,-0.126701,-0.013737,0.103891,-0.424957,0,26.452,0,0,0.121096,0,0,0.097356,0,0,0.049267,0,0,160
102,385.88915,0.001953,-0.000195,0.99834,0.140029,-0.288434,0.103891,-0.424957,0,26.452,0,0,0.120013,0,0,0.097725,0,0,0.049599,0,0,160
103,385.894136,0.001953,-0.000195,0.99834,-0.215611,-0.013737,-0.114838,-0.424957,0,26.452,0,0,0.119781,0,0,0.096571,0,0,0.049027,0,0,160
104,385.899116,0.001953,-0.000195,0.99834,-0.126701,0.169394,0.103891,-0.424957,0,26.452,0,0,0.12046,0,0,0.09586,0,0,0.049544,0,0,160
105,385.904103,0.001953,-0.000195,0.99834,0.051119,-0.013737,0.103891,-0.424957,0,26.452,0,0,0.120224,0,0,0.096034,0,0,0.050062,0,0,160
106,385.909095,0.001953,-0.004102,0.99834,-0.126701,-0.013737,-0.114838,-0.424957,0,26.452,0,0,0.119987,0,0,0.095156,0,0,0.049489,0,0,160
107,385.914071,0.001953,-0.000195,0.99834,-0.037791,0.169394,0.103891,-0.424957,0,26.452,0,0,0.120658,0,0,0.094886,0,0,0.050006,0,0,160
108,385.919068,0.001953,-0.004102,0.99834,0.051119,0.077829,0.103891,-0.424957,0,26.452,0,0,0.120873,0,0,0.094891,0,0,0.050525,0,0,160
109,385.924046,0.001953,-0.004102,0.99834,-0.126701,-0.013737,0.103891,-0.424957,0,26.452,0,0,0.120629,0,0,0.094008,0,0,0.051042,0,0,160
110,385.929027,-0.001953,-0.004102,0.99834,-0.037791,-0.105303,0.103891,-0.424957,0,26.452,0,0,0.120098,0,0,0.093564,0,0,0.05156,0,0,160
111,385.940151,-0.001953,-0.004102,1.002246,0.140029,0.077829,0.103891,-0.424957,0,26.452,0,0,0.120956,0,0,0.094852,0,0,0.052715,0,0,160
112,385.940697,-0.001953,-0.004102,1.002246,0.228939,0.169394,-0.114838,-0.424957,0,26.452,0,0,0.121041,0,0,0.094719,0,0,0.052653,0,0,160
113,385.943998,-0.001953,-0.000195,1.002246,0.140029,-0.013737,0.103891,-0.424957,0,26.452,0,0,0.120988,0,0,0.095094,0,0,0.052996,0,0,160
114,385.948996,-0.001953,-0.000195,1.002246,0.140029,0.077829,0.103891,0,0,26.452,0,0,0.121369,0,0,0.095702,0,0,0.053515,0,0,160
115,385.953969,-0.001953,-0.000195,1.002246,-0.037791,0.077829,0.103891,0,0,26.452,0,0,0.121747,0,0,0.095422,0,0,0.054032,0,0,160
116,385.958979,-0.001953,-0.000195,0.99834,0.140029,-0.105303,0.103891,0,0,26.452,0,0,0.121212,0,0,0.09603,0,0,0.054552,0,0,160
117,385.963942,-0.001953,-0.000195,1.002246,-0.037791,-0.013737,-0.114838,0,40,26.452,0.644461,0,0.121136,-0.000834,0,0.095748,-0.000635,0,0.053982,-0.000633,160,0
118,385.968918,-0.001953,-0.000195,0.99834,-0.126701,0.077829,0.103891,0,40,26.452,0.644731,0,0.121514,-0.000916,0,0.095023,-0.000553,0,0.054499,-0.00087,160,0
119,385.97389,-0.005859,-0.000195,0.99834,-0.126701,0.077829,0.103891,0,40,26.452,0.645,0,0.122082,-0.00092,0,0.094297,-0.000548,0,0.055016,-0.000877,160,0
120,385.978889,-0.005859,-0.000195,1.002246,0.051119,0.169394,0.103891,0,40,26.452,0.645271,0,0.12311,-0.001007,0,0.094456,-0.000704,0,0.055535,-0.000884,160,0
121,385.983877,-0.005859,-0.000195,1.002246,0.228939,-0.013737,0.103891,0,40,26.452,0.645541,0,0.123224,-0.000848,0,0.095499,-0.000866,0,0.056053,-0.000891,160,0
122,385.988876,-0.005859,-0.000195,1.002246,0.140029,0.077829,0.103891,0,40,26.452,0.645812,0,0.123799,-0.000932,0,0.096098,-0.000793,0,0.056573,-0.000899,160,0
123,385.993852,-0.005859,-0.000195,1.006152,0.228939,-0.013737,-0.114838,0,40,26.452,0.646082,0,0.123917,-0.000853,0,0.097135,-0.000878,0,0.056001,-0.000662,160,0
124,385.998842,-0.005859,-0.000195,1.006152,-0.126701,-0.288434,0.103891,0,40,26.452,0.646352,0,0.122667,-0.000605,0,0.096399,-0.000562,0,0.056519,-0.000898,160,0
125,386.003834,-0.005859,-0.000195,1.010059,-0.126701,0.169394,-0.114838,0,40,26.452,0.646623,0,0.123703,-0.001011,0,0.095662,-0.000557,0,0.055946,-0.000661,160,0
126,386.008829,-0.005859,-0.000195,1.006152,-0.126701,0.077829,-0.114838,0,40,26.452,0.646893,0,0.124286,-0.000936,0,0.094925,-0.000552,0,0.055373,-0.000653,160,0
127,386.013792,-0.005859,-0.000195,1.006152,0.140029,-0.013737,0.103891,0,40,26.452,0.647162,0,0.124413,-0.000857,0,0.095513,-0.000789,0,0.055888,-0.000889,160,0
128,386.018789,-0.005859,-0.004102,1.006152,0.140029,-0.013737,0.103891,0,40,26.452,0.647433,0,0.124543,-0.000857,0,0.095897,-0.000792,0,0.056407,-0.000896,160,0
129,386.023749,-0.005859,-0.000195,1.006152,0.228939,-0.013737,0.103891,0,40,26.452,0.647702,0,0.124676,-0.000858,0,0.096921,-0.000876,0,0.056923,-0.000904,160,0
130,386.028754,-0.005859,-0.000195,1.006152,0.228939,0.169394,0.103891,0,40,26.452,0.647973,0,0.125727,-0.001026,0,0.097953,-0.000884,0,0.057443,-0.000911,160,0
131,386.033732,-0.005859,-0.004102,1.006152,-0.215611,-0.196868,0.103891,0,40,26.452,0.648192,0,0.124953,-0.000701,0,0.096551,-0.000486,0,0.05796,-0.000918,160,0
132,386.038726,-0.005859,-0.000195,1.006152,0.140029,-0.013737,0.103891,0,40,26.452,0.648192,0,0.125093,-0.000861,0,0.097135,-0.0008,0,0.058479,-0.000925,160,0
133,386.043698,-0.005859,-0.000195,1.006152,0.051119,-0.013737,0.103891,0,40,26.452,0.648192,0,0.125237,-0.000862,0,0.097271,-0.000724,0,0.058995,-0.000933,160,0
134,386.048696,-0.005859,-0.000195,1.010059,-0.126701,-0.196868,0.103891,0,40,26.452,0.648192,0,0.124467,-0.000697,0,0.09652,-0.000563,0,0.059514,-0.00094,160,0
135,386.053674,-0.001953,-0.000195,1.006152,0.051119,-0.013737,-0.114838,0,40,26.452,0.648192,0,0.124391,-0.000856,0,0.096654,-0.000719,0,0.058943,-0.000703,160,0
136,386.058665,-0.001953,-0.000195,1.006152,0.140029,-0.013737,0.103891,0,40,26.452,0.648192,0,0.124316,-0.000856,0,0.097231,-0.000801,0,0.059461,-0.000939,160,0
137,386.06365,-0.001953,0.003711,1.002246,0.051119,-0.013737,-0.114838,0,40,26.452,0.648192,0,0.12424,-0.000855,0,0.097593,-0.000726,0,0.058889,-0.000702,160,0
138,386.068636,-0.001953,0.003711,1.002246,-0.037791,0.077829,0.103891,0,40,26.452,0.648192,0,0.124621,-0.000938,0,0.097513,-0.000648,0,0.059407,-0.000938,160,0
139,386.07361,-0.001953,0.003711,1.006152,0.140029,-0.013737,0.103891,0,40,26.452,0.648192,0,0.124545,-0.000857,0,0.098318,-0.000809,0,0.059924,-0.000945,160,0
140,386.07859,-0.005859,0.003711,1.006152,0.051119,-0.105303,-0.114838,0,40,26.452,0.648192,0,0.124251,-0.000776,0,0.098683,-0.000734,0,0.059352,-0.000708,160,0
141,386.083581,-0.005859,0.003711,1.006152,-0.126701,0.169394,-0.114838,0,40,26.452,0.648192,0,0.125328,-0.001023,0,0.098163,-0.000575,0,0.058779,-0.0007,160,0
142,386.088567,-0.005859,0.003711,1.006152,0.140029,-0.105303,-0.114838,0,40,26.452,0.648192,0,0.125039,-0.000781,0,0.098974,-0.000813,0,0.058206,-0.000692,160,0
143,386.093562,-0.005859,0.003711,1.006152,0.051119,-0.105303,0.103891,0,40,26.452,0.648192,0,0.124752,-0.000779,0,0.099344,-0.000738,0,0.058725,-0.000929,160,0
144,386.098551,-0.005859,0.003711,1.006152,-0.037791,0.077829,0.103891,0,40,26.452,0.648192,0,0.125383,-0.000943,0,0.099271,-0.00066,0,0.059243,-0.000936,160,0
145,386.103528,-0.005859,0.003711,1.006152,-0.037791,-0.013737,-0.114838,0,40,26.452,0.648192,0,0.125559,-0.000865,0,0.099201,-0.00066,0,0.058672,-0.000699,160,0
146,386.108517,-0.001953,-0.000195,1.006152,0.051119,-0.196868,0.103891,0,40,26.452,0.648192,0,0.124572,-0.000698,0,0.099322,-0.000738,0,0.05919,-0.000935,160,0
147,386.113494,-0.001953,-0.000195,1.002246,-0.037791,0.169394,0.103891,0,40,26.452,0.648192,0,0.125409,-0.001023,0,0.098997,-0.000658,0,0.059707,-0.000942,160,0
148,386.118498,-0.001953,-0.000195,0.99834,0.140029,-0.105303,0.103891,0,40,26.452,0.648192,0,0.124877,-0.00078,0,0.099559,-0.000817,0,0.060227,-0.00095,160,0
149,386.123463,-0.001953,-0.000195,0.99834,-0.215611,0.169394,0.103891,0,40,26.452,0.648192,0,0.125712,-0.001025,0,0.09835,-0.000498,0,0.060743,-0.000957,160,0
150,386.128456,-0.001953,-0.004102,0.994434,0.140029,-0.105303,0.103891,0,40,26.452,0.648192,0,0.125181,-0.000782,0,0.098638,-0.000811,0,0.061261,-0.000964,160,0
151,386.133431,0.001953,-0.004102,0.994434,0.228939,0.077829,0.103891,0,40,26.452,0.648192,0,0.125291,-0.000943,0,0.099361,-0.000893,0,0.061778,-0.000971,160,0
152,386.138411,0.001953,-0.000195,0.994434,0.051119,0.26096,0.103891,0,40,26.452,0.648192,0,0.126307,-0.00111,0,0.099467,-0.000739,0,0.062296,-0.000979,160,0
153,386.143394,0.001953,-0.000195,0.994434,0.228939,-0.196868,0.103891,0,40,26.452,0.648192,0,0.125041,-0.000701,0,0.100457,-0.000901,0,0.062813,-0.000986,160,0
154,386.148397,0.001953,-0.000195,0.99834,-0.037791,-0.013737,0.103891,0,40,26.452,0.648192,0,0.124684,-0.000858,0,0.100116,-0.000666,0,0.063333,-0.000993,160,0
155,386.153385,0.001953,-0.000195,0.99834,-0.037791,0.169394,0.103891,0,40,26.452,0.648192,0,0.125235,-0.001022,0,0.099773,-0.000664,0,0.063851,-0.001,160,0
156,386.158372,0.001953,-0.000195,1.002246,0.051119,0.077829,-0.114838,0,40,26.452,0.648192,0,0.125326,-0.000943,0,0.099872,-0.000742,0,0.063279,-0.000763,160,0
157,386.163346,0.001953,-0.000195,1.002246,0.228939,0.077829,-0.114838,0,40,26.452,0.648192,0,0.125412,-0.000943,0,0.100852,-0.000904,0,0.062707,-0.000755,160,0
158,386.16834,0.001953,0.003711,1.002246,0.051119,-0.105303,-0.114838,0,40,26.452,0.648192,0,0.124581,-0.000778,0,0.101237,-0.000751,0,0.062134,-0.000747,160,0
159,386.173325,0.001953,0.003711,1.002246,-0.126701,0.077829,0.103891,0,40,26.452,0.648192,0,0.124659,-0.000938,0,0.100737,-0.000593,0,0.062652,-0.000984,160,0
160,386.178315,-0.001953,-0.000195,1.002246,0.051119,-0.013737,-0.114838,0,40,26.452,0.648192,0,0.124575,-0.000858,0,0.100829,-0.000749,0,0.062079,-0.000747,160,0
161,386.183283,0.001953,-0.000195,1.002246,0.051119,-0.105303,0.103891,0,40,26.452,0.648192,0,0.123736,-0.000772,0,0.100917,-0.000749,0,0.062595,-0.000983,160,0
162,386.188259,-0.001953,-0.000195,1.002246,-0.126701,-0.196868,0.103891,0,40,26.452,0.648192,0,0.122741,-0.000685,0,0.10012,-0.000588,0,0.063112,-0.00099,160,0
163,386.19324,-0.001953,-0.000195,1.002246,-0.037791,-0.105303,-0.114838,0,40,26.452,0.648192,0,0.122202,-0.000761,0,0.099763,-0.000663,0,0.06254,-0.000753,160,0
164,386.198236,-0.001953,-0.000195,1.002246,0.140029,-0.013737,0.103891,0,40,26.452,0.648192,0,0.122119,-0.000841,0,0.100291,-0.000822,0,0.063059,-0.000989,160,0
165,386.203224,-0.001953,-0.000195,1.002246,-0.215611,0.077829,0.103891,0,40,26.452,0.648192,0,0.122492,-0.000923,0,0.099044,-0.000503,0,0.063577,-0.000996,160,0
166,386.208225,-0.001953,-0.000195,1.002246,0.051119,-0.105303,0.103891,0,40,26.452,0.648192,0,0.12195,-0.000759,0,0.099126,-0.000737,0,0.064097,-0.001004,160,0
167,386.213196,-0.001953,-0.000195,1.006152,0.228939,0.077829,0.103891,0,40,26.452,0.648192,0,0.122321,-0.000922,0,0.100086,-0.000899,0,0.064613,-0.001011,160,0
168,386.218195,-0.005859,-0.000195,1.006152,-0.037791,0.077829,0.103891,0,40,26.452,0.648192,0,0.123015,-0.000927,0,0.099718,-0.000663,0,0.065132,-0.001018,160,0
169,386.223171,-0.005859,0.003711,1.006152,0.051119,-0.196868,0.103891,0,40,26.452,0.648192,0,0.122346,-0.000682,0,0.100116,-0.000744,0,0.065649,-0.001025,160,0
170,386.228171,-0.005859,0.003711,1.006152,-0.037791,-0.013737,0.103891,0,40,26.452,0.648192,0,0.122593,-0.000844,0,0.100074,-0.000666,0,0.066169,-0.001033,160,0
171,386.233145,-0.005859,-0.000195,1.006152,-0.304522,-0.013737,-0.114838,0,40,26.452,0.648192,0,0.122843,-0.000846,0,0.098377,-0.000421,0,0.065598,-0.000796,160,0
172,386.238115,-0.005859,0.003711,1.006152,-0.037791,0.077829,0.103891,0,40,26.452,0.648192,0,0.123552,-0.00093,0,0.098342,-0.000654,0,0.066114,-0.001032,160,0
173,386.243089,-0.005859,-0.000195,1.006152,0.051119,0.169394,0.103891,0,40,26.452,0.648192,0,0.124719,-0.001019,0,0.098411,-0.000732,0,0.066631,-0.001039,160,0
174,386.248104,-0.005859,-0.000195,1.006152,0.140029,0.077829,-0.114838,0,40,26.452,0.648192,0,0.125438,-0.000944,0,0.098925,-0.000813,0,0.066055,-0.000802,160,0
175,386.253081,-0.005859,-0.000195,1.006152,-0.126701,0.077829,0.103891,0,40,26.452,0.648192,0,0.126157,-0.000949,0,0.098105,-0.000574,0,0.066572,-0.001038,160,0
176,386.258081,-0.005859,-0.000195,1.006152,-0.037791,0.169394,0.103891,0,40,26.452,0.648192,0,0.127338,-0.001037,0,0.097724,-0.000649,0,0.067091,-0.001046,160,0
177,386.263045,-0.005859,-0.000195,1.006152,-0.037791,0.169394,-0.114838,0,40,26.452,0.648192,0,0.128516,-0.001045,0,0.097344,-0.000647,0,0.066521,-0.000809,160,0
178,386.268039,-0.005859,-0.000195,1.006152,-0.037791,0.26096,0.103891,0,40,26.452,0.648192,0,0.130158,-0.001136,0,0.09696,-0.000644,0,0.06704,-0.001045,160,0
179,386.273017,-0.001953,-0.000195,1.006152,-0.037791,-0.013737,0.103891,0,40,26.452,0.648192,0,0.130072,-0.000896,0,0.096575,-0.000641,0,0.067557,-0.001052,160,0
180,386.278013,-0.001953,-0.000195,1.002246,-0.126701,0.077829,0.103891,0,40,26.452,0.648192,0,0.130442,-0.000979,0,0.095744,-0.000558,0,0.068076,-0.001059,160,0
181,386.283058,-0.001953,-0.000195,1.002246,0.051119,-0.013737,0.103891,0,40,26.452,0.648192,0,0.130354,-0.000898,0,0.095801,-0.000713,0,0.068601,-0.001067,160,0
182,386.287981,-0.001953,-0.000195,1.006152,0.140029,0.169394,0.103891,0,40,26.452,0.648192,0,0.131167,-0.001064,0,0.096287,-0.000794,0,0.069112,-0.001074,160,0
183,386.292946,-0.001953,-0.000195,1.002246,-0.126701,0.169394,-0.114838,0,40,26.452,0.648192,0,0.131985,-0.001069,0,0.095453,-0.000556,0,0.068542,-0.000837,160,0
184,386.297934,-0.001953,0.003711,1.002246,-0.126701,-0.013737,-0.114838,0,40,26.452,0.648192,0,0.131894,-0.000909,0,0.094997,-0.000553,0,0.067969,-0.000829,160,0
185,386.302917,-0.001953,0.003711,1.002246,0.140029,-0.013737,0.103891,0,40,26.452,0.648192,0,0.131802,-0.000908,0,0.095871,-0.000792,0,0.068487,-0.001065,160,0
186,386.307924,-0.005859,0.003711,1.006152,-0.126701,0.169394,0.103891,0,40,26.452,0.648192,0,0.133012,-0.001076,0,0.095416,-0.000556,0,0.069007,-0.001072,160,0
187,386.312913,-0.005859,0.003711,1.006152,0.140029,0.169394,0.103891,0,40,26.452,0.648192,0,0.134222,-0.001085,0,0.096294,-0.000794,0,0.069525,-0.00108,160,0
188,386.317899,-0.005859,0.003711,1.006152,0.051119,0.077829,0.103891,0,40,26.452,0.648192,0,0.134978,-0.00101,0,0.096732,-0.00072,0,0.070043,-0.001087,160,0
189,386.322871,-0.009766,0.003711,1.006152,0.140029,0.077829,0.103891,0,40,26.452,0.648192,0,0.136136,-0.001018,0,0.097611,-0.000804,0,0.07056,-0.001094,160,0
190,386.327869,-0.009766,0.003711,1.006152,0.051119,-0.013737,0.103891,0,40,26.452,0.648192,0,0.136848,-0.000943,0,0.098052,-0.000729,0,0.071079,-0.001101,160,0
191,386.332911,-0.005859,0.003711,1.006152,-0.126701,-0.013737,0.103891,0,40,26.452,0.648192,0,0.137161,-0.000946,0,0.097602,-0.000571,0,0.071603,-0.001109,160,0
192,386.337846,-0.005859,-0.000195,1.006152,-0.126701,0.169394,0.103891,0,40,26.452,0.648192,0,0.138381,-0.001114,0,0.096759,-0.000565,0,0.072115,-0.001116,160,0
193,386.342803,-0.005859,-0.000195,1.006152,0.051119,-0.196868,0.103891,0,40,26.452,0.648192,0,0.137796,-0.00079,0,0.096791,-0.00072,0,0.07263,-0.001123,160,0
194,386.347784,-0.001953,-0.000195,1.006152,-0.215611,0.077829,0.103891,0,40,26.452,0.648192,0,0.138159,-0.001032,0,0.095495,-0.000479,0,0.073148,-0.00113,160,0
195,386.35277,-0.001953,-0.000195,1.002246,0.051119,-0.013737,-0.114838,0,40,26.452,0.648192,0,0.138065,-0.000952,0,0.095526,-0.000712,0,0.072575,-0.000893,160,0
196,386.357759,-0.001953,-0.000195,1.006152,-0.126701,0.077829,0.103891,0,40,26.452,0.648192,0,0.138426,-0.001034,0,0.094668,-0.00055,0,0.073094,-0.001129,160,0
197,386.362757,-0.001953,-0.000195,1.006152,0.140029,-0.013737,0.103891,0,40,26.452,0.648192,0,0.13833,-0.000954,0,0.095139,-0.000786,0,0.073613,-0.001137,160,0
198,386.367757,0.001953,-0.000195,1.002246,-0.037791,-0.013737,0.103891,0,40,26.452,0.648192,0,0.137797,-0.00095,0,0.094718,-0.000628,0,0.074132,-0.001144,160,0
199,386.372721,-0.001953,-0.000195,1.006152,0.317849,-0.196868,0.103891,0,40,26.452,0.648192,0,0.136792,-0.000783,0,0.096059,-0.000948,0,0.074648,-0.001151,160,0
200,386.377716,-0.001953,-0.000195,1.006152,-0.126701,0.169394,0.103891,0,40,26.452,0.648192,0,0.137608,-0.001109,0,0.095189,-0.000554,0,0.075167,-0.001158,160,0
201,386.382773,-0.001953,-0.000195,1.002246,-0.215611,-0.105303,0.103891,0,40,26.452,0.648192,0,0.137047,-0.000865,0,0.09386,-0.000467,0,0.075692,-0.001166,160,0
202,386.38769,-0.001953,-0.000195,1.002246,0.140029,0.169394,0.103891,0,40,26.452,0.648192,0,0.137848,-0.00111,0,0.094307,-0.000781,0,0.076203,-0.001173,160,0
203,386.392676,-0.001953,0.003711,1.002246,-0.037791,-0.105303,0.103891,0,40,26.452,0.648192,0,0.137293,-0.000867,0,0.094333,-0.000626,0,0.076721,-0.00118,160,0
204,386.397649,-0.001953,0.003711,1.002246,0.140029,-0.013737,-0.114838,0,40,26.452,0.648192,0,0.137193,-0.000946,0,0.095246,-0.000787,0,0.07615,-0.000943,160,0
205,386.402619,0.001953,0.003711,1.002246,-0.037791,0.077829,-0.114838,0,40,26.452,0.648192,0,0.13708,-0.001025,0,0.095278,-0.000632,0,0.075579,-0.000935,160,0
206,386.40761,-0.001953,0.003711,1.002246,-0.126701,-0.196868,-0.114838,0,40,26.452,0.648192,0,0.136065,-0.000778,0,0.094869,-0.000552,0,0.075006,-0.000927,160,0
207,386.412585,-0.001953,0.003711,1.002246,0.140029,0.169394,-0.114838,0,40,26.452,0.648192,0,0.136874,-0.001103,0,0.09579,-0.000791,0,0.074435,-0.000919,160,0
208,386.417596,-0.001953,0.003711,1.002246,-0.037791,-0.105303,-0.114838,0,40,26.452,0.648192,0,0.136312,-0.00086,0,0.095829,-0.000636,0,0.073859,-0.000911,160,0
209,386.422578,-0.001953,-0.000195,1.002246,-0.126701,-0.288434,0.103891,0,40,26.452,0.648192,0,0.134844,-0.00069,0,0.094945,-0.000552,0,0.074377,-0.001147,160,0
210,386.427575,-0.001953,-0.000195,1.002246,0.051119,-0.013737,0.103891,0,40,26.452,0.648192,0,0.134743,-0.000929,0,0.094945,-0.000707,0,0.074896,-0.001155,160,0
211,386.432661,-0.001953,-0.000195,1.006152,-0.037791,0.077829,0.103891,0,40,26.452,0.648192,0,0.135105,-0.001011,0,0.094494,-0.000627,0,0.075425,-0.001162,160,0
212,386.437541,-0.001953,-0.000195,1.006152,-0.126701,-0.013737,0.103891,0,40,26.452,0.648192,0,0.135003,-0.000931,0,0.093618,-0.000543,0,0.075932,-0.001169,160,0
213,386.442522,-0.005859,-0.000195,1.006152,-0.037791,0.169394,0.103891,0,40,26.452,0.648192,0,0.13631,-0.001099,0,0.093169,-0.000617,0,0.076449,-0.001176,160,0
214,386.447515,-0.005859,-0.000195,1.010059,0.051119,-0.013737,0.103891,0,40,26.452,0.648192,0,0.136707,-0.000942,0,0.093161,-0.000695,0,0.076968,-0.001183,160,0
215,386.452478,-0.009766,-0.000195,1.010059,0.228939,0.077829,0.103891,0,40,26.452,0.648192,0,0.13807,-0.001032,0,0.094028,-0.000856,0,0.077483,-0.001191,160,0
216,386.457461,-0.009766,0.003711,1.010059,0.228939,-0.105303,0.103891,0,40,26.452,0.648192,0,0.138533,-0.000875,0,0.095407,-0.000866,0,0.078001,-0.001198,160,0
217,386.462441,-0.009766,-0.000195,1.013965,0.051119,0.169394,0.103891,0,40,26.452,0.648192,0,0.140368,-0.001128,0,0.095386,-0.000711,0,0.078518,-0.001205,160,0
218,386.467435,-0.009766,0.003711,1.013965,-0.037791,-0.013737,0.103891,0,40,26.452,0.648192,0,0.141301,-0.000974,0,0.095438,-0.000633,0,0.079037,-0.001212,160,0
219,386.472429,-0.009766,0.003711,1.013965,0.140029,0.077829,0.103891,0,40,26.452,0.648192,0,0.1427,-0.001064,0,0.09638,-0.000795,0,0.079556,-0.00122,160,0
220,386.477431,-0.009766,0.003711,1.013965,0.051119,-0.196868,-0.114838,0,40,26.452,0.648192,0,0.142739,-0.000825,0,0.09688,-0.000721,0,0.078982,-0.000983,160,0
221,386.482403,-0.009766,0.003711,1.010059,-0.749072,1.176615,-0.114838,0,40,26.452,0.648192,0,0.149613,-0.002071,0,0.093414,0.000002,0,0.078411,-0.000975,160,0
222,386.487395,-0.005859,0.003711,1.006152,0.85131,-1.020959,-0.114838,0,40,26.452,0.648192,0,0.145026,-0.000122,0,0.097917,-0.001426,0,0.077837,-0.000967,160,0
223,386.492378,-0.001953,-0.000195,1.010059,0.58458,0.901919,-0.114838,0,40,26.452,0.648192,0,0.149476,-0.001831,0,0.100532,-0.001212,0,0.077265,-0.000959,160,0
224,386.497365,-0.001953,-0.004102,1.006152,-1.282533,-0.013737,0.32262,0,40,26.452,0.648192,0,0.149364,-0.001031,0,0.093301,0.000468,0,0.078874,-0.001439,160,0
225,386.502342,-0.001953,-0.004102,1.006152,2.007142,-0.929393,0.32262,0,40,26.452,0.648192,0,0.144704,-0.000199,0,0.102421,-0.002467,0,0.08048,-0.001462,160,0
226,386.507323,-0.001953,0.003711,1.002246,-0.126701,2.824796,-0.114838,0,40,26.452,0.648192,0,0.158706,-0.003573,0,0.102038,-0.000602,0,0.079908,-0.000995,160,0
227,386.512292,0.001953,-0.004102,1.002246,-0.482342,-2.943836,-0.333568,0,40,26.452,0.648192,0,0.143477,0.001567,0,0.098763,-0.000269,0,0.07825,-0.000743,160,0
228,386.517288,0.005859,-0.000195,1.006152,0.94022,2.092271,0.103891,0,40,26.452,0.648192,0,0.152727,-0.002892,0,0.103134,-0.001541,0,0.078769,-0.001209,160,0
229,386.522283,0.001953,-0.004102,1.002246,-0.037791,-0.929393,-0.333568,0,40,26.452,0.648192,0,0.147456,-0.000218,0,0.102039,-0.000679,0,0.077103,-0.000727,160,0
230,386.527273,0.001953,-0.004102,1.006152,-0.215611,-0.013737,-0.333568,0,40,26.452,0.648192,0,0.146752,-0.001013,0,0.100054,-0.00051,0,0.075439,-0.000704,160,0
231,386.532277,-0.001953,-0.004102,1.010059,0.40676,0.169394,0.32262,0,40,26.452,0.648192,0,0.147539,-0.001178,0,0.101169,-0.001061,0,0.077053,-0.001414,160,0
232,386.537248,-0.001953,-0.000195,1.006152,-0.215611,0.169394,0.54135,0,40,26.452,0.648192,0,0.148319,-0.001183,0,0.099758,-0.000508,0,0.079744,-0.00168,160,0
233,386.542226,0.001953,0.003711,1.006152,0.49567,-0.196868,-0.333568,0,40,26.452,0.648192,0,0.146684,-0.000852,0,0.102471,-0.001148,0,0.078084,-0.000741,160,0
234,386.547213,0.005859,-0.004102,1.006152,-0.926893,-1.112524,0.54135,0,40,26.452,0.648192,0,0.13989,-0.000006,0,0.096911,0.000132,0,0.080783,-0.001695,160,0
235,386.552191,0.005859,-0.000195,1.006152,1.029131,1.817575,0.103891,0,40,26.452,0.648192,0,0.147655,-0.002617,0,0.101679,-0.001608,0,0.0813,-0.001244,160,0
236,386.557195,-0.001953,0.003711,1.002246,-0.660162,-1.112524,-0.552297,0,40,26.452,0.648192,0,0.142027,-0.000021,0,0.098637,-0.000113,0,0.078537,-0.000518,160,0
237,386.562155,-0.001953,-0.004102,1.002246,-0.482342,0.169394,0.103891,0,40,26.452,0.648192,0,0.142803,-0.001145,0,0.095285,-0.000244,0,0.079052,-0.001213,160,0
238,386.567141,0.001953,-0.000195,1.002246,0.67349,0.26096,0.103891,0,40,26.452,0.648192,0,0.143414,-0.001229,0,0.098286,-0.001274,0,0.07957,-0.00122,160,0
239,386.572113,0.001953,-0.000195,0.99834,-0.037791,0.077829,-0.114838,0,40,26.452,0.648192,0,0.143103,-0.001067,0,0.097738,-0.000649,0,0.078999,-0.000983,160,0
240,386.577129,0.001953,-0.000195,1.002246,-0.304522,-0.471565,-0.114838,0,40,26.452,0.648192,0,0.14004,-0.000566,0,0.095853,-0.000403,0,0.078423,-0.000975,160,0
241,386.582125,0.001953,-0.000195,1.002246,0.228939,0.627222,0.32262,0,40,26.452,0.648192,0,0.142461,-0.001542,0,0.096633,-0.000874,0,0.080035,-0.001455,160,0
242,386.587108,-0.001953,-0.000195,1.002246,0.317849,-0.013737,0.103891,0,40,26.452,0.648192,0,0.142314,-0.000982,0,0.097846,-0.00096,0,0.080553,-0.001234,160,0
243,386.592073,-0.001953,-0.000195,1.002246,-0.215611,-0.196868,-0.114838,0,40,26.452,0.648192,0,0.14126,-0.000814,0,0.096406,-0.000485,0,0.079982,-0.000997,160,0
244,386.597066,0.001953,-0.000195,1.002246,0.228939,-0.105303,-0.114838,0,40,26.452,0.648192,0,0.140008,-0.000886,0,0.097172,-0.000878,0,0.079409,-0.000989,160,0
245,386.602041,0.001953,-0.000195,1.002246,-0.215611,0.352525,0.103891,0,40,26.452,0.648192,0,0.141024,-0.001292,0,0.095724,-0.00048,0,0.079926,-0.001225,160,0
246,386.607041,0.001953,-0.000195,1.002246,-0.215611,-0.837827,0.103891,0,40,26.452,0.648192,0,0.136103,-0.000219,0,0.094271,-0.00047,0,0.080445,-0.001232,160,0
247,386.612001,0.001953,-0.000195,1.002246,0.40676,0.26096,-0.114838,0,40,26.452,0.648192,0,0.136655,-0.001182,0,0.095905,-0.001025,0,0.079876,-0.000995,160,0
248,386.617003,0.001953,-0.000195,1.002246,-0.571252,-0.196868,0.103891,0,40,26.452,0.648192,0,0.134925,-0.00077,0,0.09267,-0.000148,0,0.080395,-0.001231,160,0
249,386.621968,-0.001953,-0.000195,1.002246,-0.482342,0.535656,0.54135,0,40,26.452,0.648192,0,0.1375,-0.001427,0,0.089903,-0.000207,0,0.083083,-0.001727,160,0
250,386.626957,0.001953,-0.004102,1.002246,1.918232,-1.936614,0.54135,0,40,26.452,0.648192,0,0.127102,0.000803,0,0.098388,-0.002361,0,0.085784,-0.001765,160,0
251,386.632078,0.001953,-0.000195,1.006152,-0.571252,3.007927,-0.552297,0,40,26.452,0.648192,0,0.141716,-0.003614,0,0.095062,-0.000165,0,0.082956,-0.00058,160,0
252,386.636957,0.001953,-0.004102,0.99834,-1.104713,-3.859492,-0.333568,0,40,26.452,0.648192,0,0.122147,0.002515,0,0.088595,0.000346,0,0.081328,-0.000786,160,0
253,386.641935,-0.001953,-0.000195,1.010059,1.473681,2.916362,-0.771026,0,40,26.452,0.648192,0,0.136568,-0.003498,0,0.095521,-0.001953,0,0.07749,-0.000275,160,0
254,386.646924,0.001953,0.003711,1.002246,-1.549264,-2.119746,-0.333568,0,40,26.452,0.648192,0,0.125231,0.000976,0,0.088104,0.000737,0,0.075826,-0.000709,160,0
255,386.651896,-0.001953,-0.004102,1.006152,-0.482342,-0.013737,-0.333568,0,40,26.452,0.648192,0,0.1251,-0.000861,0,0.084621,-0.00017,0,0.074167,-0.000686,160,0
256,386.656896,-0.001953,-0.000195,1.006152,0.228939,-0.196868,-0.114838,0,40,26.452,0.648192,0,0.124056,-0.000694,0,0.085376,-0.000796,0,0.073593,-0.000907,160,0
257,386.661862,-0.005859,-0.000195,1.002246,0.40676,2.183837,0.54135,0,40,26.452,0.648192,0,0.135523,-0.002852,0,0.086998,-0.000962,0,0.076282,-0.001632,160,0
258,386.666854,-0.001953,-0.008008,1.006152,1.206951,-0.563131,1.197538,0,40,26.452,0.648192,0,0.132626,-0.000434,0,0.091167,-0.00169,0,0.08226,-0.002403,160,0
259,386.671832,-0.001953,-0.000195,1.002246,0.58458,1.90914,2.072455,0,40,26.452,0.648192,0,0.142014,-0.002657,0,0.093645,-0.001164,0,0.092576,-0.003463,160,0
260,386.676814,0.001953,-0.000195,1.006152,-2.349455,-3.767926,-0.552297,0,40,26.452,0.648192,0,0.122456,0.002433,0,0.081543,0.001481,0,0.089825,-0.000676,160,0
261,386.68179,0.001953,-0.000195,1.006152,1.829322,4.381411,0.54135,0,40,26.452,0.648192,0,0.143395,-0.004825,0,0.090218,-0.002226,0,0.092519,-0.001859,160,0
262,386.686806,-0.005859,-0.004102,0.99834,-1.282533,-2.486008,0.103891,0,40,26.452,0.648192,0,0.131584,0.001251,0,0.08263,0.000542,0,0.09304,-0.001408,160,0
263,386.691778,0.001953,-0.004102,1.006152,0.317849,-2.486008,-2.95832,0,40,26.452,0.648192,0,0.118432,0.001343,0,0.083049,-0.000857,0,0.078331,0.002004,160,0
264,386.696776,-0.005859,-0.008008,1.006152,-0.037791,3.832018,-0.989756,0,40,26.452,0.648192,0,0.13822,-0.004309,0,0.080942,-0.000532,0,0.073384,0.000012,160,0
265,386.701769,-0.001953,-0.000195,1.002246,1.295861,-4.500451,0.978808,0,40,26.452,0.648192,0,0.115714,0.00312,0,0.086968,-0.001738,0,0.078271,-0.002118,160,0
266,386.706747,0.005859,0.003711,1.002246,0.40676,5.113936,-1.427214,0,40,26.452,0.648192,0,0.139524,-0.005437,0,0.089302,-0.000978,0,0.071167,0.000501,160,0
267,386.711718,-0.001953,0.007617,0.994434,2.362783,-2.760705,2.728643,0,40,26.452,0.648192,0,0.125727,0.001531,0,0.102099,-0.002775,0,0.084731,-0.00404,160,0
268,386.716715,-0.001953,-0.008008,1.006152,-1.282533,2.550099,0.760079,0,40,26.452,0.648192,0,0.138347,-0.003191,0,0.093676,0.000465,0,0.088529,-0.002032,160,0
269,386.721679,-0.005859,-0.000195,0.99834,-0.571252,-1.845049,-0.333568,0,40,26.452,0.648192,0,0.129881,0.000703,0,0.090372,-0.000132,0,0.086873,-0.000864,160,0
270,386.726676,-0.001953,0.003711,1.006152,1.740412,1.90914,0.54135,0,40,26.452,0.648192,0,0.139296,-0.002639,0,0.099348,-0.002212,0,0.089578,-0.001818,160,0
271,386.731643,-0.001953,-0.000195,0.99834,-1.193623,-2.394442,-2.083402,0,40,26.452,0.648192,0,0.127323,0.001201,0,0.092938,0.000393,0,0.07923,0.001075,160,0
272,386.736642,-0.005859,-0.000195,0.994434,-1.638174,-0.013737,-1.427214,0,40,26.452,0.648192,0,0.127975,-0.000881,0,0.084293,0.000841,0,0.072095,0.000488,160,0
273,386.741628,0.001953,0.007617,0.994434,3.074064,-0.379999,0.103891,0,40,26.452,0.648192,0,0.125204,-0.000542,0,0.100718,-0.003386,0,0.072613,-0.001123,160,0
274,386.746629,-0.001953,-0.000195,0.994434,-1.815994,0.810353,0.760079,0,40,26.452,0.648192,0,0.12917,-0.001609,0,0.091155,0.000948,0,0.076414,-0.001863,160,0
275,386.751597,-0.001953,0.003711,0.994434,2.807333,1.90914,1.416267,0,40,26.452,0.648192,0,0.138533,-0.002633,0,0.105384,-0.003186,0,0.08345,-0.002648,160,0
276,386.756608,-0.009766,-0.000195,1.002246,-0.037791,-0.929393,0.32262,0,40,26.452,0.648192,0,0.135394,-0.000134,0,0.104659,-0.000698,0,0.085067,-0.001526,160,0
277,386.761569,-0.001953,-0.000195,0.99834,-2.616185,1.359747,0.978808,0,40,26.452,0.648192,0,0.142009,-0.002178,0,0.091191,0.001646,0,0.089923,-0.002281,160,0
278,386.766568,-0.005859,-0.000195,1.002246,1.829322,-1.570352,-0.552297,0,40,26.452,0.648192,0,0.134878,0.000429,0,0.099811,-0.002293,0,0.087162,-0.000639,160,0
279,386.771544,-0.001953,-0.000195,0.99834,-0.837982,1.359747,-1.864673,0,40,26.452,0.648192,0,0.141516,-0.002175,0,0.095129,0.000067,0,0.077883,0.000865,160,0
280,386.776519,-0.005859,0.003711,1.002246,-0.571252,-2.486008,-1.427214,0,40,26.452,0.648192,0,0.129898,0.001263,0,0.092618,-0.000148,0,0.070783,0.000506,160,0
281,386.781504,-0.001953,0.011523,1.006152,0.228939,0.077829,-0.114838,0,40,26.452,0.648192,0,0.130198,-0.000977,0,0.095758,-0.000868,0,0.07021,-0.00086,160,0
282,386.786495,-0.001953,0.003711,1.002246,0.40676,1.634443,0.760079,0,40,26.452,0.648192,0,0.138238,-0.002391,0,0.098114,-0.00104,0,0.074004,-0.001829,160,0
283,386.791484,-0.001953,0.003711,1.006152,1.029131,-1.570352,0.760079,0,40,26.452,0.648192,0,0.130314,0.000461,0,0.103555,-0.001621,0,0.077796,-0.001882,160,0
284,386.796477,-0.001953,0.007617,1.006152,-3.505287,0.627222,2.728643,0,40,26.452,0.648192,0,0.133343,-0.001478,0,0.087281,0.00245,0,0.09142,-0.004134,160,0
285,386.801449,-0.009766,-0.008008,1.010059,2.718423,6.304288,2.291185,0,40,26.452,0.648192,0,0.16617,-0.006662,0,0.098561,-0.00306,0,0.102812,-0.003835,160,0
286,386.806449,-0.001953,0.011523,1.002246,2.896244,-10.635345,-1.208485,0,40,26.452,0.648192,0,0.112977,0.008492,0,0.11505,-0.003331,0,0.09677,-0.000086,160,0
287,386.811427,0.005859,-0.000195,1.010059,-4.127658,5.938026,-4.270696,0,40,26.452,0.648192,0,0.140674,-0.006164,0,0.093993,0.002946,0,0.07551,0.003418,160,0
288,386.816419,-0.009766,-0.011914,0.990527,-1.104713,-2.211311,-3.614508,0,40,26.452,0.648192,0,0.131323,0.001013,0,0.08533,0.000368,0,0.057466,0.002983,160,0
289,386.821388,0.017578,0.01543,1.006152,-2.438365,-6.881156,-0.989756,0,40,26.452,0.648192,0,0.092789,0.005357,0,0.076278,0.001595,0,0.052548,0.000303,160,0
290,386.826383,-0.001953,0.003711,1.006152,-5.46131,0.901919,2.509914,0,40,26.452,0.648192,0,0.09732,-0.001466,0,0.049543,0.00442,0,0.065085,-0.003537,160,0
291,386.831357,-0.005859,0.011523,1.002246,5.207907,10.882567,1.197538,0,40,26.452,0.648192,0,0.152153,-0.010559,0,0.077677,-0.005087,0,0.071042,-0.002246,160,0
292,386.836352,-0.001953,0.003711,1.002246,5.474637,-11.551001,1.197538,0,40,26.452,0.648192,0,0.094498,0.00942,0,0.105365,-0.005513,0,0.077024,-0.00233,160,0
293,386.841319,0.013672,0.003711,0.99834,-5.63913,6.487419,3.603561,0,40,26.452,0.648192,0,0.123019,-0.00652,0,0.077817,0.004378,0,0.094922,-0.005099,160,0
294,386.846348,-0.009766,-0.011914,1.006152,-0.304522,4.930805,-1.645944,0,40,26.452,0.648192,0,0.149432,-0.005346,0,0.073139,-0.000245,0,0.086645,0.000514,160,0
295,386.851301,-0.001953,-0.008008,0.986621,0.85131,-4.592016,-2.520861,0,40,26.452,0.648192,0,0.1266,0.003123,0,0.075048,-0.001267,0,0.074159,0.001604,160,0
296,386.856304,0.021484,0.01543,1.002246,-6.439321,-6.423328,-1.645944,0,40,26.452,0.648192,0,0.089004,0.004984,0,0.04617,0.005297,0,0.065925,0.000803,160,0
297,386.861273,0.001953,-0.019727,1.017871,3.785345,9.325952,-0.333568,0,40,26.452,0.648192,0,0.134278,-0.009076,0,0.060041,-0.003723,0,0.064267,-0.000548,160,0
298,386.866276,-0.017578,-0.008008,0.990527,6.097009,3.007927,2.072455,-0.425053,40,26.417999,0.649178,0,0.152865,-0.003692,0,0.088137,-0.005936,0,0.074636,-0.003212,160,0
299,386.871242,0.009766,-0.011914,1.002246,1.829322,-7.705246,-1.427214,-0.425053,40,26.417999,0.649178,0,0.111749,0.005944,0,0.093857,-0.002252,0,0.067548,0.000551,160,0
300,386.876242,0.029297,-0.01582,0.99834,-4.838939,8.227165,2.291185,-0.425053,40,26.417999,0.649178,0,0.14514,-0.008193,0,0.065432,0.003766,0,0.079004,-0.003502,160,0
301,386.881205,-0.017578,-0.011914,0.990527,2.540603,-0.563131,-0.333568,-0.425053,40,26.417999,0.649178,0,0.145944,-0.000527,0,0.07466,-0.002738,0,0.077348,-0.000731,160,0
302,386.886199,0.017578,0.003711,1.006152,0.317849,-1.020959,-2.083402,-0.425053,40,26.417999,0.649178,0,0.135935,-0.000058,0,0.076659,-0.000813,0,0.066944,0.001247,160,0
303,386.891166,0.013672,0.003711,0.990527,-5.46131,0.627222,2.728643,-0.425053,40,26.417999,0.649178,0,0.134999,-0.00149,0,0.050078,0.004416,0,0.080497,-0.003981,160,0
304,386.89617,-0.009766,-0.027539,1.02959,5.030087,-1.020959,0.32262,-0.425053,40,26.417999,0.649178,0,0.131554,-0.000027,0,0.068209,-0.004866,0,0.082111,-0.001484,160,0
305,386.901155,-0.005859,0.007617,0.978809,4.852267,6.029592,0.54135,-0.425053,40,26.417999,0.649178,0,0.162293,-0.006395,0,0.093736,-0.004889,0,0.08481,-0.001751,160,0
306,386.906153,0.005859,-0.008008,1.010059,-8.306434,-11.642566,0.54135,-0.424957,40,26.417999,0.649178,0,0.102118,0.009447,0,0.049852,0.006901,0,0.087516,-0.001789,160,0
307,386.911121,0.021484,-0.019727,1.013965,4.318806,5.754895,-0.989756,-0.424957,40,26.417999,0.649178,0,0.124757,-0.005893,0,0.065966,-0.004229,0,0.082599,-0.000117,160,0
308,386.916123,-0.017578,-0.004102,0.986621,-5.99477,3.282624,0.54135,-0.424957,40,26.417999,0.649178,0,0.144894,-0.003876,0,0.034576,0.00499,0,0.085306,-0.001758,160,0
309,386.9211,0.013672,0.007617,1.002246,-1.727084,-5.9655,-1.645944,-0.424957,40,26.417999,0.649178,0,0.111152,0.00443,0,0.02757,0.001315,0,0.077115,0.000647,160,0
310,386.926093,0.013672,-0.011914,1.006152,-2.438365,1.726009,0.760079,-0.424957,40,26.417999,0.649178,0,0.115676,-0.002314,0,0.012128,0.002043,0,0.08091,-0.001926,160,0
311,386.931067,-0.001953,-0.004102,0.990527,4.318806,1.359747,2.072455,-0.424957,40,26.417999,0.649178,0,0.122256,-0.00204,0,0.032193,-0.003994,0,0.091218,-0.003444,160,0
312,386.936056,0.005859,0.003711,1.021777,-4.750029,-1.936614,-0.333568,-0.424957,40,26.417999,0.649178,0,0.110484,0.000919,0,0.009166,0.004081,0,0.089554,-0.000901,160,0
313,386.941022,-0.001953,-0.000195,0.978809,-0.837982,3.648886,-0.114838,-0.424957,40,26.417999,0.649178,0,0.12839,-0.004081,0,0.004716,0.000698,0,0.088984,-0.001122,160,0
314,386.946012,0.009766,-0.011914,1.010059,4.585536,-5.599238,-0.333568,0.425053,40,26.452,0.647342,0,0.097353,0.004207,0,0.024213,-0.004171,0,0.087319,-0.00087,160,0
315,386.951006,0.005859,0.007617,0.982715,-5.28349,5.84646,-0.552297,0.425053,40,26.452,0.647342,0,0.124269,-0.00597,0,-0.000382,0.004613,0,0.084561,-0.000602,160,0
316,386.956008,0.005859,-0.004102,1.002246,-2.527275,-7.796811,-0.114838,0.425053,40,26.452,0.647342,0,0.083188,0.006223,0,-0.014252,0.002305,0,0.083987,-0.001052,160,0
317,386.960975,0.013672,0.003711,1.006152,3.874255,5.113936,0.32262,0.425053,40,26.452,0.647342,0,0.104359,-0.005191,0,0.00571,-0.003421,0,0.085589,-0.001533,160,0
318,386.965974,-0.001953,-0.004102,1.006152,-1.549264,-3.310098,0.54135,0.425053,40,26.452,0.647342,0,0.087726,0.002276,0,-0.003319,0.001375,0,0.088295,-0.0018,160,0
319,386.970956,-0.001953,-0.000195,0.994434,2.629513,5.938026,0.103891,0.425053,40,26.452,0.647342,0,0.117094,-0.005999,0,0.00946,-0.002361,0,0.088813,-0.001349,160,0
320,386.975962,0.013672,0.003711,0.994434,-0.393432,-6.881156,0.54135,0.425053,40,26.452,0.647342,0,0.078421,0.005457,0,0.00822,0.000286,0,0.091523,-0.001845,160,0
321,386.980936,0.005859,-0.011914,0.994434,1.384771,6.487419,-0.552297,0.425053,40,26.452,0.647342,0,0.108395,-0.006418,0,0.011621,-0.00129,0,0.088776,-0.000661,160,0
322,386.985914,-0.001953,-0.000195,0.99834,0.85131,-0.746262,-1.427214,0.425053,40,26.452,0.647342,0,0.104499,-0.000078,0,0.015499,-0.000851,0,0.081671,0.000354,160,0
323,386.990895,0.013672,-0.000195,0.99834,-2.082724,-4.225754,0.103891,0.425053,40,26.452,0.647342,0,0.079158,0.003135,0,0.004813,0.001784,0,0.082188,-0.001256,160,0
324,386.995867,-0.005859,-0.01582,1.010059,2.807333,5.754895,0.54135,0.425053,40,26.452,0.647342,0,0.108599,-0.00578,0,0.014215,-0.002549,0,0.08488,-0.001752,160,0
325,387.000867,-0.001953,0.007617,1.002246,2.273872,-3.859492,0.54135,0.425053,40,26.452,0.647342,0,0.089179,0.002745,0,0.027274,-0.002175,0,0.087587,-0.00179,160,0
326,387.005847,-0.001953,-0.008008,1.006152,-2.260545,3.557321,0.103891,0.425053,40,26.452,0.647342,0,0.106688,-0.003849,0,0.013526,0.001878,0,0.088104,-0.001339,160,0
327,387.010835,0.001953,-0.008008,1.006152,3.785345,-0.379999,0.32262,0.425053,40,26.452,0.647342,0,0.103532,-0.000391,0,0.02982,-0.003512,0,0.089713,-0.00159,160,0
328,387.015825,0.005859,-0.000195,0.99834,-0.304522,0.352525,0.103891,0.425053,40,26.452,0.647342,0,0.102939,-0.001026,0,0.027848,0.000071,0,0.090232,-0.001369,160,0
329,387.020806,-0.009766,0.003711,0.99834,1.473681,1.359747,-0.989756,0.425053,40,26.452,0.647342,0,0.111646,-0.001966,0,0.035784,-0.001536,0,0.085302,-0.000155,160,0
330,387.025793,0.001953,-0.004102,1.013965,-1.371443,-1.20409,-1.208485,0,40,26.452,0.648192,0,0.104364,0.000322,0,0.027423,0.001005,0,0.079275,0.000159,160,0
331,387.030785,0.009766,-0.008008,1.010059,3.162974,-1.112524,0.103891,0,40,26.452,0.648192,0,0.0954,0.000305,0,0.040528,-0.003043,0,0.079794,-0.001223,160,0
332,387.03577,-0.005859,-0.000195,1.006152,-3.149646,2.183837,0.760079,0,40,26.452,0.648192,0,0.10715,-0.002654,0,0.024379,0.002578,0,0.083583,-0.001963,160,0
333,387.040745,0.001953,-0.000195,1.006152,2.985154,0.627222,0.103891,0,40,26.452,0.648192,0,0.108942,-0.001308,0,0.03871,-0.002875,0,0.0841,-0.001283,160,0
334,387.045722,0.005859,-0.004102,1.006152,-0.571252,-3.951057,0.54135,0,40,26.452,0.648192,0,0.086948,0.002841,0,0.034265,0.000259,0,0.086794,-0.001779,160,0
335,387.050708,0.005859,-0.004102,0.99834,-0.926893,4.564542,0.32262,0,40,26.452,0.648192,0,0.107246,-0.004732,0,0.028053,0.000613,0,0.088402,-0.001572,160,0
336,387.055689,0.001953,0.011523,0.990527,0.051119,-0.563131,-0.333568,0,40,26.452,0.648192,0,0.103098,-0.000228,0,0.031192,-0.000262,0,0.086741,-0.000862,160,0
337,387.060694,0.005859,-0.004102,1.006152,2.273872,-3.126967,-0.989756,0,40,26.452,0.648192,0,0.08508,0.002135,0,0.040923,-0.00227,0,0.081787,-0.000105,160,0
338,387.06568,0.005859,-0.008008,1.017871,-2.705095,0.352525,0.32262,0,40,26.452,0.648192,0,0.084477,-0.000897,0,0.024764,0.002188,0,0.083396,-0.001502,160,0
339,387.070661,0.001953,-0.008008,1.013965,-1.104713,-2.302877,0.103891,0,40,26.452,0.648192,0,0.071802,0.001508,0,0.016604,0.000848,0,0.083913,-0.00128,160,0
340,387.075647,-0.005859,-0.008008,1.006152,-1.904904,4.472977,1.853726,0,40,26.452,0.648192,0,0.095026,-0.004567,0,0.004473,0.001631,0,0.093156,-0.003242,160,0
341,387.080623,0.001953,-0.01582,1.006152,-0.660162,-6.881156,-0.552297,0,40,26.452,0.648192,0,0.059632,0.005589,0,-0.003684,0.000602,0,0.090408,-0.000684,160,0
342,387.085621,0.005859,-0.004102,1.002246,1.651502,3.374189,-0.989756,0,40,26.452,0.648192,0,0.074118,-0.003462,0,0.003032,-0.001462,0,0.085461,-0.000157,160,0
343,387.090604,-0.013672,-0.004102,0.99834,-5.99477,-0.929393,-0.552297,0,40,26.452,0.648192,0,0.072843,0.000303,0,-0.028231,0.005429,0,0.082709,-0.000576,160,0
344,387.095585,0.009766,-0.004102,1.006152,-0.660162,-1.570352,0.760079,0,40,26.452,0.648192,0,0.06156,0.000941,0,-0.032884,0.000806,0,0.086495,-0.002004,160,0
345,387.100561,0.001953,-0.011914,1.013965,2.007142,-1.112524,-0.552297,0,40,26.452,0.648192,0,0.054877,0.000588,0,-0.026575,-0.001566,0,0.083747,-0.000591,160,0
346,387.105545,-0.005859,-0.008008,1.002246,-4.305478,1.90914,0.978808,0,40,26.452,0.648192,0,0.065494,-0.002123,0,-0.050495,0.00411,0,0.088625,-0.002262,160,0
347,387.110527,-0.009766,-0.008008,1.010059,4.140985,-0.288434,-0.552297,0,40,26.452,0.648192,0,0.066306,-0.000211,0,-0.032418,-0.003387,0,0.085873,-0.000621,160,0
348,387.115546,0.005859,-0.000195,1.010059,-2.527275,-4.31732,-0.333568,0,40,26.452,0.648192,0,0.042395,0.003472,0,-0.045291,0.002522,0,0.084199,-0.000826,160,0
349,387.120527,0.005859,-0.004102,1.006152,-1.193623,0.444091,0.103891,0,40,26.452,0.648192,0,0.042346,-0.000683,0,-0.05255,0.001409,0,0.084717,-0.001292,160,0
350,387.125511,-0.001953,-0.000195,1.002246,-5.28349,-0.013737,0.54135,0,40,26.452,0.648192,0,0.042346,-0.000284,0,-0.078895,0.005162,0,0.087415,-0.001787,160,0
351,387.13048,0.001953,-0.01582,1.006152,1.118041,-4.31732,-0.114838,0,40,26.452,0.648192,0,0.019906,0.003629,0,-0.078052,-0.000431,0,0.086844,-0.001092,160,0
352,387.135475,0.005859,-0.004102,1.010059,-1.193623,2.824796,0.103891,0,40,26.452,0.648192,0,0.031787,-0.002687,0,-0.08518,0.001636,0,0.087363,-0.001329,160,0
353,387.140456,-0.001953,0.007617,0.99834,1.206951,-0.837827,0.978808,0,40,26.452,0.648192,0,0.027758,0.000537,0,-0.076819,-0.000517,0,0.092239,-0.002313,160,0
354,387.145453,0.009766,0.003711,0.99834,-2.438365,2.092271,0.103891,0,40,26.452,0.648192,0,0.03473,-0.002068,0,-0.087773,0.002741,0,0.092758,-0.001404,160,0
355,387.15042,0.017578,0.003711,0.994434,4.318806,-2.486008,-0.989756,0,40,26.452,0.648192,0,0.016553,0.002054,0,-0.065195,-0.003314,0,0.087842,-0.00019,160,0
356,387.155403,0.013672,-0.000195,1.002246,-5.105669,1.268181,0.760079,0,40,26.452,0.648192,0,0.018235,-0.001234,0,-0.090573,0.005088,0,0.091629,-0.002075,160,0
357,387.160382,-0.001953,-0.011914,0.99834,2.096052,-0.654696,0.54135,0,40,26.452,0.648192,0,0.015148,0.000466,0,-0.083737,-0.001245,0,0.094324,-0.001884,160,0
358,387.165383,0.001953,-0.004102,1.013965,-1.193623,-0.105303,0.103891,0,40,26.452,0.648192,0,0.013599,-0.000003,0,-0.090845,0.001676,0,0.094844,-0.001433,160,0
359,387.170372,0.001953,-0.004102,1.013965,2.629513,0.26096,-0.771026,0,40,26.452,0.648192,0,0.013873,-0.000325,0,-0.078934,-0.001744,0,0.090997,-0.000463,160,0
360,387.175361,-0.005859,-0.008008,1.013965,-1.193623,-0.379999,-0.114838,0,40,26.452,0.648192,0,0.013355,0.000238,0,-0.08726,0.001651,0,0.090424,-0.001142,160,0
361,387.180331,-0.001953,-0.008008,1.010059,-0.926893,2.275402,-0.333568,0,40,26.452,0.648192,0,0.024786,-0.002159,0,-0.094223,0.001467,0,0.088767,-0.00089,160,0
362,387.185324,0.001953,-0.004102,1.006152,2.184962,-4.225754,-1.864673,0,40,26.452,0.648192,0,0.002715,0.003669,0,-0.084527,-0.001317,0,0.079456,0.000843,160,0
363,387.190304,0.001953,-0.004102,1.010059,-3.505287,0.535656,1.634997,0,40,26.452,0.648192,0,0.0044,-0.000498,0,-0.103094,0.003779,0,0.087599,-0.002935,160,0
364,387.195292,-0.009766,-0.011914,1.010059,1.118041,3.282624,0.103891,0,40,26.452,0.648192,0,0.023352,-0.003028,0,-0.101092,-0.00027,0,0.088117,-0.001339,160,0
365,387.200303,-0.009766,0.007617,1.006152,-0.926893,-0.929393,0.103891,0,40,26.452,0.648192,0,0.021316,0.000662,0,-0.103176,0.001529,0,0.088637,-0.001346,160,0
366,387.205257,0.005859,0.011523,1.002246,5.741368,-2.394442,0.103891,0,40,26.452,0.648192,0,0.007225,0.002039,0,-0.071077,-0.004514,0,0.089152,-0.001354,160,0
367,387.210233,-0.001953,0.003711,1.006152,-1.549264,8.318731,1.634997,0,40,26.452,0.648192,0,0.048632,-0.007599,0,-0.077562,0.001893,0,0.097288,-0.003071,160,0
368,387.21523,-0.001953,0.003711,1.006152,0.40676,-6.606459,0.760079,0,40,26.452,0.648192,0,0.015817,0.005655,0,-0.074314,0.000164,0,0.101086,-0.002207,160,0
369,387.220216,0.005859,0.011523,1.002246,0.94022,2.458534,-0.114838,0,40,26.452,0.648192,0,0.025719,-0.002325,0,-0.065936,-0.00036,0,0.100513,-0.001283,160,0
370,387.225223,0.005859,0.01543,1.002246,0.58458,-2.02818,-2.520861,0,40,26.452,0.648192,0,0.013263,0.001677,0,-0.058081,-0.000105,0,0.087891,0.001413,160,0
371,387.230199,-0.005859,-0.000195,1.006152,-4.483298,1.176615,0.103891,0,40,26.452,0.648192,0,0.020537,-0.00117,0,-0.080339,0.004473,0,0.088408,-0.001343,160,0
372,387.235174,0.001953,0.011523,0.99834,3.785345,0.810353,1.634997,0,40,26.452,0.648192,0,0.023461,-0.000871,0,-0.057776,-0.0029,0,0.096542,-0.00306,160,0
373,387.240196,0.001953,0.007617,1.010059,-1.904904,-1.295655,-0.989756,0,40,26.452,0.648192,0,0.015889,0.00102,0,-0.064847,0.002115,0,0.091572,-0.000242,160,0
374,387.245144,-0.005859,-0.008008,0.994434,1.029131,2.73323,0.32262,0,40,26.452,0.648192,0,0.030815,-0.0026,0,-0.062338,-0.000463,0,0.093168,-0.001639,160,0
375,387.250205,-0.017578,-0.008008,1.006152,1.118041,-1.753483,0.32262,0,40,26.452,0.648192,0,0.027155,0.001341,0,-0.059272,-0.000562,0,0.094801,-0.001662,160,0
376,387.255132,0.001953,0.003711,1.006152,-5.72804,0.169394,-0.552297,0,40,26.452,0.648192,0,0.026883,-0.000336,0,-0.086117,0.0056,0,0.09208,-0.000707,160,0
377,387.260107,-0.005859,-0.01582,0.99834,0.228939,-1.570352,0.54135,0,40,26.452,0.648192,0,0.020561,0.001227,0,-0.089998,0.000429,0,0.094773,-0.00189,160,0
378,387.265089,-0.001953,-0.011914,1.013965,4.763357,-0.929393,-1.208485,0,40,26.452,0.648192,0,0.016157,0.000698,0,-0.07008,-0.003668,0,0.088752,0.000026,160,0
379,387.270173,-0.009766,0.003711,0.990527,-3.416377,2.824796,0.54135,0,40,26.452,0.648192,0,0.033268,-0.002697,0,-0.086073,0.003582,0,0.091505,-0.001845,160,0
380,387.275036,0.001953,0.007617,0.99834,-2.882916,-1.387221,-0.771026,0,40,26.452,0.648192,0,0.02543,0.001033,0,-0.097337,0.003195,0,0.087755,-0.000418,160,0
381,387.280209,0.013672,0.003711,1.002246,-0.749072,-3.951057,2.291185,0,40,26.452,0.648192,0,0.000134,0.003447,0,-0.09975,0.00135,0,0.099607,-0.00379,160,0
382,387.28503,0.001953,0.011523,0.986621,1.740412,11.798223,1.197538,0,40,26.452,0.648192,0,0.055716,-0.010685,0,-0.087274,-0.00091,0,0.105381,-0.002725,160,0
383,387.290168,0.009766,0.01543,0.994434,3.340794,-10.543779,-1.864673,0,40,26.452,0.648192,0,-0.002067,0.009216,0,-0.064863,-0.002463,0,0.0958,0.000615,160,0
384,387.294999,0.009766,-0.008008,1.002246,-2.082724,7.860903,1.416267,0,40,26.452,0.648192,0,0.032126,-0.007084,0,-0.077435,0.002358,0,0.102642,-0.002916,160,0
385,387.300037,-0.005859,-0.011914,1.002246,-3.238556,-4.683582,-1.208485,0,40,26.452,0.648192,0,0.010083,0.004017,0,-0.09748,0.003507,0,0.096554,-0.000083,160,0
386,387.304965,-0.001953,-0.004102,1.006152,-0.215611,0.993484,-0.552297,0,40,26.452,0.648192,0,0.015204,-0.000973,0,-0.099641,0.000884,0,0.093832,-0.000732,160,0
387,387.309965,-0.001953,-0.011914,1.002246,2.896244,0.810353,-0.989756,0,40,26.452,0.648192,0,0.019457,-0.000843,0,-0.08897,-0.001906,0,0.088883,-0.000205,160,0
388,387.31493,0.001953,-0.011914,0.99834,0.140029,-2.760705,-0.333568,0,40,26.452,0.648192,0,0.004721,0.002376,0,-0.092101,0.000521,0,0.087227,-0.000869,160,0
389,387.31991,-0.009766,-0.004102,1.006152,1.206951,2.550099,0.54135,0,40,26.452,0.648192,0,0.020256,-0.002367,0,-0.0873,-0.000444,0,0.089923,-0.001822,160,0
390,387.324893,-0.001953,0.003711,0.990527,-0.660162,-0.746262,0.760079,0,40,26.452,0.648192,0,0.016778,0.000534,0,-0.089129,0.001198,0,0.09371,-0.002104,160,0
391,387.329898,0.009766,-0.008008,1.002246,-0.926893,1.542878,0.760079,0,40,26.452,0.648192,0,0.020721,-0.001491,0,-0.096262,0.001481,0,0.097515,-0.002158,160,0
392,387.334882,0.001953,-0.000195,0.990527,1.740412,0.169394,-0.333568,0,40,26.452,0.648192,0,0.020427,-0.00029,0,-0.087479,-0.000908,0,0.095852,-0.000989,160,0
393,387.339878,0.009766,0.011523,0.99834,0.228939,-0.288434,-0.114838,0,40,26.452,0.648192,0,0.015195,0.000146,0,-0.082228,0.000374,0,0.095278,-0.00121,160,0
394,387.344848,0.009766,0.003711,0.994434,1.562591,4.289846,-0.114838,0,40,26.452,0.648192,0,0.032588,-0.003971,0,-0.073068,-0.000854,0,0.094708,-0.001202,160,0
395,387.349839,0.001953,0.003711,0.99834,3.429704,-4.500451,-0.552297,0,40,26.452,0.648192,0,0.009028,0.003864,0,-0.054664,-0.002611,0,0.091951,-0.000706,160,0
396,387.35482,0.013672,-0.008008,0.99834,-6.528231,1.634443,-0.333568,0,40,26.452,0.648192,0,0.011994,-0.00151,0,-0.089727,0.006323,0,0.09029,-0.000911,160,0
397,387.359807,-0.005859,-0.01582,1.002246,2.629513,0.352525,-0.552297,0,40,26.452,0.648192,0,0.015295,-0.000414,0,-0.08191,-0.001723,0,0.087535,-0.000644,160,0
398,387.364795,0.001953,-0.008008,1.010059,0.94022,-4.042623,0.978808,0,40,26.452,0.648192,0,-0.005887,0.003569,0,-0.079831,-0.000263,0,0.092418,-0.002315,160,0
399,387.369761,0.001953,-0.011914,1.006152,-1.282533,3.832018,0.54135,0,40,26.452,0.648192,0,0.012012,-0.003428,0,-0.090121,0.001748,0,0.095106,-0.001895,160,0
400,387.374743,-0.001953,-0.004102,1.010059,3.874255,-2.760705,-0.114838,0,40,26.452,0.648192,0,-0.001446,0.002419,0,-0.07216,-0.002877,0,0.094534,-0.0012,160,0
401,387.37973,0.001953,0.003711,1.006152,-1.193623,2.366968,0.978808,0,40,26.452,0.648192,0,0.009239,-0.00213,0,-0.076722,0.001577,0,0.099415,-0.002413,160,0
402,387.384731,-0.001953,-0.000195,1.010059,-0.749072,0.535656,-0.552297,-0.85001,40,26.384001,0.650164,0,0.012132,-0.000552,0,-0.080407,0.001215,0,0.096653,-0.000771,160,0
403,387.389721,0.017578,0.007617,1.002246,1.473681,-2.394442,-0.333568,-0.85001,40,26.384001,0.650164,0,-0.006318,0.002134,0,-0.070314,-0.000795,0,0.094989,-0.000977,160,0
404,387.394721,0.005859,-0.004102,1.002246,-3.505287,3.832018,-0.333568,-0.85001,40,26.384001,0.650164,0,0.010314,-0.003416,0,-0.089082,0.003681,0,0.093321,-0.000954,160,0
405,387.399693,0.009766,0.003711,1.002246,2.096052,-2.394442,-0.333568,-0.85001,40,26.384001,0.650164,0,-0.005406,0.002127,0,-0.077231,-0.00129,0,0.091662,-0.000931,160,0
406,387.404671,0.017578,0.007617,1.002246,0.40676,1.08505,0.32262,-0.85001,40,26.384001,0.650164,0,-0.006586,-0.000901,0,-0.072419,0.000151,0,0.093268,-0.00164,160,0
407,387.409663,-0.005859,-0.01582,1.006152,0.58458,0.901919,-0.114838,-0.85001,40,26.384001,0.650164,0,-0.000468,-0.000784,0,-0.074938,0.000013,0,0.092695,-0.001174,160,0
408,387.414649,0.005859,-0.004102,1.010059,1.473681,-1.478786,-0.114838,-0.85001,40,26.384001,0.650164,0,-0.010276,0.001362,0,-0.068956,-0.000805,0,0.092122,-0.001166,160,0
409,387.419636,0.001953,-0.004102,1.006152,0.7624,-0.288434,0.32262,-0.85001,40,26.384001,0.650164,0,-0.012774,0.000341,0,-0.066546,-0.000201,0,0.093731,-0.001647,160,0
410,387.424591,-0.005859,-0.01582,1.013965,-1.193623,0.718788,1.197538,-0.85001,40,26.384001,0.650164,0,-0.007555,-0.000575,0,-0.07789,0.001585,0,0.099665,-0.002646,160,0
411,387.429582,-0.001953,0.003711,1.006152,-1.371443,-0.379999,-0.552297,-0.85001,40,26.384001,0.650164,0,-0.009145,0.000395,0,-0.083277,0.001778,0,0.096909,-0.000775,160,0
412,387.434565,0.005859,0.007617,1.006152,0.317849,-0.929393,0.103891,-0.85001,40,26.384001,0.650164,0,-0.016198,0.000924,0,-0.078864,0.000273,0,0.097426,-0.001469,160,0
413,387.439575,-0.001953,0.007617,1.006152,2.896244,3.099493,0.103891,-0.85001,40,26.384001,0.650164,0,-0.00042,-0.002702,0,-0.061617,-0.002097,0,0.097947,-0.001476,160,0
414,387.444554,0.009766,0.011523,0.990527,-0.215611,-1.112524,-0.552297,-0.85001,40,26.384001,0.650164,0,-0.009882,0.00104,0,-0.058495,0.000597,0,0.095197,-0.000751,160,0
415,387.449553,0.009766,-0.000195,0.994434,3.785345,0.901919,-0.333568,-0.85001,40,26.384001,0.650164,0,-0.009306,-0.000722,0,-0.039726,-0.003026,0,0.093529,-0.000957,160,0
416,387.454524,0.009766,0.003711,0.99834,-0.926893,-1.478786,-0.333568,-0.85001,40,26.384001,0.650164,0,-0.020521,0.001434,0,-0.043054,0.001109,0,0.091871,-0.000933,160,0
417,387.459519,0.005859,-0.011914,1.002246,-2.260545,0.077829,0.103891,-0.85001,40,26.384001,0.650164,0,-0.022583,0.00009,0,-0.058596,0.002382,0,0.09239,-0.001399,160,0
418,387.464501,-0.001953,-0.01582,1.017871,0.317849,0.901919,0.978808,1.70002,40,26.52,0.64452,0,-0.017772,-0.000663,0,-0.06258,0.00016,0,0.097267,-0.002383,160,0
419,387.469487,0.001953,-0.004102,1.006152,-2.616185,-0.929393,0.760079,1.70002,40,26.52,0.64452,0,-0.023446,0.000975,0,-0.076973,0.00282,0,0.101056,-0.002207,160,0
420,387.474468,0.001953,-0.008008,1.010059,1.740412,-2.02818,-0.333568,1.70002,40,26.52,0.64452,0,-0.034519,0.002011,0,-0.071094,-0.001022,0,0.099395,-0.001039,160,0
421,387.479443,-0.001953,-0.000195,1.002246,-0.393432,4.289846,0.54135,1.70002,40,26.52,0.64452,0,-0.012874,-0.003654,0,-0.073028,0.000853,0,0.102088,-0.001992,160,0
422,387.484419,0.001953,0.007617,1.002246,1.740412,-2.85227,-0.114838,1.70002,40,26.52,0.64452,0,-0.028084,0.002685,0,-0.061574,-0.001089,0,0.101517,-0.001297,160,0
423,387.489411,0.005859,0.007617,1.006152,1.118041,2.275402,-0.989756,1.70002,40,26.52,0.64452,0,-0.019218,-0.001851,0,-0.053248,-0.000604,0,0.096576,-0.000312,160,0
424,387.494411,0.009766,0.003711,0.99834,-2.705095,-1.020959,-0.552297,1.70002,40,26.52,0.64452,0,-0.028216,0.001088,0,-0.065345,0.002817,0,0.093814,-0.000732,160,0
425,387.499397,0.005859,-0.008008,1.006152,-1.282533,-0.837827,-0.333568,1.70002,40,26.52,0.64452,0,-0.034812,0.000974,0,-0.07452,0.001639,0,0.092151,-0.000937,160,0
426,387.504381,0.013672,-0.004102,0.994434,-1.638174,1.726009,-0.114838,1.70002,40,26.52,0.64452,0,-0.031566,-0.001286,0,-0.084009,0.002016,0,0.091579,-0.001158,160,0
427,387.509371,0.009766,-0.008008,0.99834,0.140029,-1.753483,0.978808,1.70002,40,26.52,0.64452,0,-0.04416,0.001838,0,-0.08606,0.000479,0,0.096463,-0.002372,160,0
428,387.514353,0.009766,-0.008008,1.013965,2.184962,0.535656,0.54135,1.70002,40,26.52,0.64452,0,-0.045288,-0.000151,0,-0.077943,-0.001363,0,0.09916,-0.001951,160,0
429,387.519341,0.001953,-0.000195,1.002246,1.473681,1.176615,1.197538,1.70002,40,26.52,0.64452,0,-0.040432,-0.000745,0,-0.070579,-0.000793,0,0.105133,-0.002722,160,0
430,387.524342,0.005859,-0.004102,1.013965,3.340794,-0.379999,0.103891,1.70002,40,26.52,0.64452,0,-0.044736,0.000644,0,-0.055379,-0.002529,0,0.105653,-0.001584,160,0
431,387.529299,-0.001953,-0.000195,1.002246,-1.460353,-2.119746,-0.114838,1.70002,40,26.52,0.64452,0,-0.054727,0.002232,0,-0.062655,0.001712,0,0.105084,-0.001347,160,0
432,387.534285,0.001953,0.003711,1.006152,0.49567,2.092271,-0.333568,1.70002,40,26.52,0.64452,0,-0.045279,-0.00151,0,-0.058807,-0.000022,0,0.10342,-0.001095,160,0
433,387.539261,0.001953,-0.000195,1.010059,-1.904904,-0.929393,-1.427214,1.70002,40,26.52,0.64452,0,-0.050851,0.001166,0,-0.06828,0.002139,0,0.096319,0.00015,160,0
434,387.544238,0.005859,0.011523,0.990527,-0.660162,0.718788,-0.114838,-0.850105,40,26.452,0.649892,0,-0.04971,-0.00028,0,-0.067167,0.001045,0,0.095747,-0.001217,160,0
435,387.549253,0.005859,0.007617,0.99834,0.67349,0.993484,-0.333568,-0.850105,40,26.452,0.649892,0,-0.047177,-0.000538,0,-0.060901,-0.000163,0,0.094074,-0.000964,160,0
436,387.55423,0.005859,0.003711,0.990527,0.317849,0.26096,0.103891,-0.850105,40,26.452,0.649892,0,-0.048343,0.00011,0,-0.05788,0.000127,0,0.094591,-0.00143,160,0
437,387.559229,0.001953,-0.004102,1.002246,2.362783,-1.020959,0.760079,-0.850105,40,26.452,0.649892,0,-0.054402,0.001271,0,-0.047618,-0.001729,0,0.098391,-0.00217,160,0
438,387.564209,0.005859,-0.008008,1.017871,1.206951,0.444091,0.760079,-0.850105,40,26.452,0.649892,0,-0.054568,-0.000007,0,-0.044593,-0.000742,0,0.102176,-0.002223,160,0
439,387.569199,-0.001953,-0.011914,1.002246,0.228939,-0.379999,0.760079,-0.850105,40,26.452,0.649892,0,-0.055957,0.000722,0,-0.047934,0.000135,0,0.105969,-0.002276,160,0
440,387.574172,-0.005859,-0.008008,1.021777,-0.571252,-0.105303,0.103891,-0.850105,40,26.452,0.649892,0,-0.054554,0.000473,0,-0.05372,0.000874,0,0.106486,-0.001596,160,0
441,387.579164,0.005859,0.003711,1.002246,-0.926893,0.077829,-0.333568,-0.850105,40,26.452,0.649892,0,-0.056568,0.000327,0,-0.056949,0.001206,0,0.10482,-0.001114,160,0
442,387.584129,0.001953,0.007617,1.006152,0.228939,2.73323,-0.771026,-1.275063,40,26.417999,0.650878,0,-0.044018,-0.002078,0,-0.052974,0.00017,0,0.100992,-0.000603,160,0
443,387.589124,0.005859,0.007617,1.002246,1.829322,-0.746262,-1.208485,-1.275063,40,26.417999,0.650878,0,-0.050203,0.001002,0,-0.041053,-0.00131,0,0.094956,-0.00006,160,0
444,387.594095,0.021484,0.019336,0.990527,0.49567,1.176615,-0.771026,-1.275063,40,26.417999,0.650878,0,-0.052777,-0.000658,0,-0.031355,-0.000214,0,0.091123,-0.000465,160,0
445,387.599105,0.005859,0.007617,1.002246,3.074064,1.268181,-0.333568,-1.275063,40,26.417999,0.650878,0,-0.04893,-0.000765,0,-0.013308,-0.00259,0,0.089452,-0.0009,160,0
446,387.604087,0.005859,-0.000195,0.994434,-1.104713,-1.661918,0.103891,-1.275063,40,26.417999,0.650878,0,-0.059668,0.001867,0,-0.019062,0.001097,0,0.08997,-0.001365,160,0
447,387.609077,0.005859,-0.008008,1.010059,-1.549264,0.077829,1.416267,-1.275063,40,26.417999,0.650878,0,-0.0617,0.000363,0,-0.029901,0.001561,0,0.097037,-0.002838,160,0
448,387.614072,-0.001953,-0.011914,1.017871,0.051119,-1.753483,0.760079,-1.275063,40,26.417999,0.650878,0,-0.069904,0.002018,0,-0.034173,0.000194,0,0.100833,-0.002204,160,0
449,387.619046,-0.001953,-0.004102,0.99834,-2.082724,1.176615,1.634997,-1.275063,40,26.417999,0.650878,0,-0.063517,-0.000583,0,-0.046113,0.002139,0,0.108966,-0.003234,160,0
450,387.624024,-0.001953,-0.004102,1.010059,-1.638174,-2.577573,-0.771026,0,40,26.452,0.648192,0,-0.075736,0.002778,0,-0.055772,0.001819,0,0.105128,-0.00066,160,0
451,387.62902,0.001953,-0.000195,1.002246,0.051119,1.451312,-0.552297,0,40,26.452,0.648192,0,-0.069391,-0.000782,0,-0.055556,0.000343,0,0.102368,-0.000851,160,0
452,387.633995,-0.001953,0.007617,1.002246,0.58458,0.352525,-0.771026,0,40,26.452,0.648192,0,-0.06707,0.000161,0,-0.049751,-0.000163,0,0.098532,-0.000568,160,0
453,387.638974,0.001953,0.007617,1.006152,4.229896,0.718788,-1.864673,0,40,26.452,0.648192,0,-0.064423,-0.000178,0,-0.025948,-0.00351,0,0.089248,0.000707,160,0
454,387.64396,0.005859,0.007617,0.994434,-0.660162,1.268181,-0.552297,0,40,26.452,0.648192,0,-0.06057,-0.000684,0,-0.026446,0.000761,0,0.086495,-0.000629,160,0
455,387.648943,-0.001953,-0.004102,1.006152,-0.660162,-1.20409,0.54135,0,40,26.452,0.648192,0,-0.066013,0.001512,0,-0.031388,0.000795,0,0.089192,-0.001812,160,0
456,387.653942,0.005859,-0.000195,0.994434,0.7624,0.901919,0.103891,0,40,26.452,0.648192,0,-0.06396,-0.000341,0,-0.027773,-0.000471,0,0.089711,-0.001361,160,0
457,387.658928,-0.005859,-0.004102,1.006152,-2.171635,-0.013737,2.947373,0,40,26.452,0.648192,0,-0.062008,0.000445,0,-0.040201,0.002176,0,0.104407,-0.004544,160,0
458,387.663907,0.001953,-0.011914,1.013965,1.829322,-1.753483,0.32262,0.425053,40,26.452,0.647342,0,-0.071618,0.00203,0,-0.035678,-0.001347,0,0.106013,-0.001818,160,0
459,387.668916,-0.001953,0.007617,1.006152,-1.193623,2.366968,0.760079,0.425053,40,26.452,0.647342,0,-0.059242,-0.001652,0,-0.03881,0.001313,0,0.109821,-0.002329,160,0
460,387.673876,-0.005859,-0.000195,1.013965,-1.371443,-4.134188,0.103891,0.425053,40,26.452,0.647342,0,-0.077615,0.00415,0,-0.045691,0.001516,0,0.110336,-0.001649,160,0
461,387.678868,0.005859,0.003711,1.002246,-0.482342,3.374189,-1.864673,0.425053,40,26.452,0.647342,0,-0.063209,-0.002503,0,-0.046671,0.000747,0,0.101027,0.000542,160,0
462,387.683846,0.001953,0.003711,1.002246,-0.926893,-2.486008,-0.771026,0.425053,40,26.452,0.647342,0,-0.076435,0.002703,0,-0.049826,0.001157,0,0.097189,-0.00055,160,0
463,387.688838,0.005859,-0.000195,1.013965,0.67349,1.176615,-1.208485,0.425053,40,26.452,0.647342,0,-0.072919,-0.000518,0,-0.046526,-0.000263,0,0.091156,-0.000007,160,0
464,387.693803,0.001953,0.011523,1.002246,-0.660162,1.451312,-0.114838,0.425053,40,26.452,0.647342,0,-0.066636,-0.000801,0,-0.045349,0.000893,0,0.090586,-0.001145,160,0
465,387.698803,0.001953,-0.000195,1.006152,2.362783,-1.295655,0.760079,0.425053,40,26.452,0.647342,0,-0.07399,0.001647,0,-0.033667,-0.001827,0,0.094387,-0.002114,160,0
466,387.70377,0.005859,0.003711,0.99834,-0.660162,2.824796,1.197538,0,40,26.452,0.648192,0,-0.062433,-0.002029,0,-0.035547,0.000824,0,0.100335,-0.002655,160,0
467,387.708784,-0.001953,-0.000195,1.002246,2.007142,-3.767926,2.291185,0,40,26.452,0.648192,0,-0.080656,0.003851,0,-0.025665,-0.001572,0,0.111823,-0.003961,160,0
468,387.713766,0.009766,-0.004102,1.010059,3.518614,3.099493,0.103891,0,40,26.452,0.648192,0,-0.069126,-0.002222,0,-0.009923,-0.003001,0,0.11234,-0.001677,160,0
469,387.71875,-0.009766,-0.000195,1.006152,-2.527275,-1.112524,0.103891,0,40,26.452,0.648192,0,-0.07105,0.001467,0,-0.022722,0.002364,0,0.112858,-0.001685,160,0
470,387.723727,0.001953,-0.004102,1.017871,0.7624,-2.577573,-0.989756,0,40,26.452,0.648192,0,-0.084671,0.00284,0,-0.020638,-0.000521,0,0.107932,-0.000471,160,0
471,387.728728,0.005859,0.007617,1.002246,0.49567,4.015149,-1.645944,0,40,26.452,0.648192,0,-0.067038,-0.003036,0,-0.015381,-0.000325,0,0.099701,0.000332,160,0
472,387.733701,-0.001953,0.003711,1.002246,-1.193623,-1.845049,-1.208485,0,40,26.452,0.648192,0,-0.075565,0.002138,0,-0.020012,0.001181,0,0.093691,-0.000043,160,0
473,387.738697,0.013672,0.011523,0.99834,2.184962,0.535656,-0.552297,0,40,26.452,0.648192,0,-0.078329,0.000079,0,-0.004827,-0.001873,0,0.090932,-0.000691,160,0
474,387.74366,0.005859,0.003711,0.994434,-2.260545,0.993484,0.103891,0,40,26.452,0.648192,0,-0.075822,-0.000338,0,-0.014742,0.002076,0,0.091447,-0.001386,160,0
475,387.748649,0.009766,-0.008008,0.994434,0.317849,-1.020959,1.197538,0,40,26.452,0.648192,0,-0.084825,0.001483,0,-0.016446,-0.000163,0,0.097422,-0.002614,160,0
476,387.753631,0.005859,-0.004102,0.990527,-0.126701,1.451312,2.072455,0,40,26.452,0.648192,0,-0.080021,-0.000708,0,-0.018831,0.000242,0,0.107747,-0.003675,160,0
477,387.758609,0.005859,-0.008008,1.002246,1.029131,-1.661918,0.978808,0,40,26.452,0.648192,0,-0.090629,0.002083,0,-0.016989,-0.000779,0,0.112619,-0.002597,160,0
478,387.763615,0.005859,-0.008008,1.010059,1.029131,2.824796,0.103891,0,40,26.452,0.648192,0,-0.078895,-0.001914,0,-0.015122,-0.000793,0,0.113139,-0.001689,160,0
479,387.768603,-0.001953,-0.000195,0.99834,1.829322,-1.936614,-0.552297,0,40,26.452,0.648192,0,-0.08786,0.002303,0,-0.006318,-0.001552,0,0.110385,-0.000963,160,0
480,387.773582,0.009766,-0.004102,1.006152,-0.482342,1.817575,-1.208485,0,40,26.452,0.648192,0,-0.082727,-0.001009,0,-0.010536,0.000494,0,0.104368,-0.000192,160,0
481,387.778573,0.005859,-0.000195,0.994434,0.49567,-1.478786,-1.427214,0,40,26.452,0.648192,0,-0.092473,0.001936,0,-0.008373,-0.000374,0,0.097244,0.000137,160,0
482,387.783557,-0.001953,-0.004102,1.002246,-1.282533,1.268181,-0.989756,0,40,26.452,0.648192,0,-0.085484,-0.00051,0,-0.016555,0.001235,0,0.092311,-0.000252,160,0
483,387.788545,0.009766,0.007617,0.99834,1.206951,-0.471565,-0.771026,0,40,26.452,0.648192,0,-0.091744,0.001052,0,-0.007771,-0.000999,0,0.088466,-0.000428,160,0
484,387.793524,0.005859,0.007617,0.994434,-1.993814,-0.196868,1.197538,0,40,26.452,0.648192,0,-0.095086,0.000836,0,-0.01486,0.001844,0,0.094428,-0.002573,160,0
485,387.798513,0.001953,-0.011914,0.994434,-1.549264,0.810353,1.416267,0,40,26.452,0.648192,0,-0.091884,-0.000066,0,-0.027407,0.001543,0,0.101494,-0.0029,160,0
486,387.803479,0.005859,-0.000195,0.990527,0.58458,-1.387221,1.416267,0,40,26.452,0.648192,0,-0.10111,0.001916,0,-0.024701,-0.000338,0,0.108527,-0.002998,160,0
487,387.808474,-0.001953,-0.008008,1.010059,-0.215611,1.634443,1.416267,0,40,26.452,0.648192,0,-0.09225,-0.000782,0,-0.029005,0.000391,0,0.115601,-0.003097,160,0
488,387.813483,0.001953,-0.004102,0.994434,0.228939,-2.02818,-0.552297,0,40,26.452,0.648192,0,-0.103177,0.00249,0,-0.029589,0.000007,0,0.112835,-0.000997,160,0
489,387.820179,0.001953,-0.004102,1.006152,-3.060736,2.275402,-0.771026,0,40,26.452,0.648192,0,-0.089036,-0.001364,0,-0.051754,0.003032,0,0.107672,-0.000696,160,0
490,387.823438,0.009766,-0.000195,0.994434,-0.304522,-1.936614,-1.864673,0,40,26.452,0.648192,0,-0.099013,0.002381,0,-0.052662,0.000633,0,0.101595,0.000534,160,0
491,387.828426,0.009766,0.003711,0.994434,-1.727084,2.550099,-1.645944,0,40,26.452,0.648192,0,-0.090276,-0.001595,0,-0.059692,0.001924,0,0.093385,0.00042,160,0
492,387.833404,0.005859,-0.004102,0.994434,3.074064,-1.020959,-0.989756,0,40,26.452,0.648192,0,-0.097742,0.001573,0,-0.04601,-0.002361,0,0.088458,-0.000199,160,0
493,387.838407,0.009766,0.003711,0.990527,-1.371443,2.183837,0.54135,0,40,26.452,0.648192,0,-0.090835,-0.001272,0,-0.051334,0.001555,0,0.091166,-0.00184,160,0
494,387.843374,-0.001953,-0.000195,0.990527,-2.438365,-0.105303,2.291185,0,40,26.452,0.648192,0,-0.09068,0.000725,0,-0.063384,0.00257,0,0.102547,-0.003831,160,0
495,387.848376,-0.001953,-0.008008,0.99834,0.140029,0.169394,2.291185,0,40,26.452,0.648192,0,-0.089171,0.000475,0,-0.06572,0.000337,0,0.114007,-0.003991,160,0
496,387.853332,0.001953,-0.004102,0.994434,2.718423,1.176615,0.760079,0,40,26.452,0.648192,0,-0.084262,-0.000439,0,-0.053822,-0.001997,0,0.117774,-0.00244,160,0
497,387.858318,0.001953,0.003711,1.002246,-2.349455,1.268181,0.32262,0,40,26.452,0.648192,0,-0.078897,-0.000556,0,-0.063929,0.002497,0,0.119383,-0.002005,160,0
498,387.863313,0.009766,0.003711,0.994434,-1.460353,-3.401664,-0.989756,0,40,26.452,0.648192,0,-0.099842,0.003666,0,-0.069558,0.00176,0,0.114439,-0.000561,160,0
499,387.868309,0.009766,-0.004102,1.006152,-1.815994,2.458534,-2.520861,0,40,26.452,0.648192,0,-0.091539,-0.001506,0,-0.080001,0.002143,0,0.101845,0.001218,160,0
500,387.873286,0.005859,-0.004102,0.99834,5.385728,-2.486008,-2.302132,0,40,26.452,0.648192,0,-0.106266,0.002911,0,-0.054758,-0.004318,0,0.090387,0.001149,160,0
501,387.878286,0.001953,-0.004102,1.002246,-1.549264,1.726009,-0.333568,0,40,26.452,0.648192,0,-0.098488,-0.000819,0,-0.064002,0.001799,0,0.088719,-0.000889,160,0
502,387.883259,-0.001953,-0.011914,1.002246,-5.3724,-0.746262,1.853726,0,40,26.452,0.648192,0,-0.101467,0.00136,0,-0.095121,0.005352,0,0.097938,-0.003309,160,0
503,387.888254,0.001953,-0.004102,1.006152,4.229896,2.458534,1.416267,0,40,26.452,0.648192,0,-0.090089,-0.001517,0,-0.075423,-0.003165,0,0.105012,-0.002949,160,0
504,387.893236,0.001953,0.011523,0.994434,2.273872,-2.394442,2.072455,0,40,26.452,0.648192,0,-0.102839,0.002807,0,-0.059367,-0.00157,0,0.115337,-0.003781,160,0
505,387.898232,0.013672,0.007617,0.994434,-2.171635,1.90914,0.54135,0,40,26.452,0.648192,0,-0.098875,-0.000976,0,-0.06699,0.002363,0,0.118042,-0.002215,160,0
506,387.903194,0.009766,-0.008008,0.990527,-1.460353,-1.478786,-1.864673,0,40,26.452,0.648192,0,-0.110161,0.00206,0,-0.077237,0.001814,0,0.108789,0.000434,160,0
507,387.908173,0.001953,-0.008008,1.002246,3.874255,0.535656,-1.208485,0,40,26.452,0.648192,0,-0.108297,0.000289,0,-0.061035,-0.002955,0,0.102772,-0.000169,160,0
508,387.913162,-0.005859,-0.000195,0.99834,-0.215611,-1.661918,-0.333568,0,40,26.452,0.648192,0,-0.114212,0.002248,0,-0.062072,0.000622,0,0.101108,-0.001062,160,0
509,387.918146,-0.005859,-0.019727,1.010059,-5.55022,3.557321,0.103891,0,40,26.452,0.648192,0,-0.09426,-0.002446,0,-0.097216,0.005522,0,0.101626,-0.001528,160,0
510,387.923141,-0.001953,-0.019727,1.006152,5.118997,-0.471565,-0.114838,0,40,26.452,0.648192,0,-0.095923,0.001081,0,-0.079314,-0.003913,0,0.101052,-0.001291,160,0
511,387.928128,0.017578,0.027148,0.990527,2.362783,0.444091,1.197538,0,40,26.452,0.648192,0,-0.100894,0.000317,0,-0.056476,-0.001668,0,0.107024,-0.002748,160,0
512,387.933108,0.017578,0.01543,0.990527,-5.72804,-0.837827,-0.989756,0,40,26.452,0.648192,0,-0.112197,0.001514,0,-0.078507,0.005547,0,0.102095,-0.000389,160,0
513,387.938101,0.017578,-0.019727,0.994434,1.029131,-0.288434,-0.989756,0,40,26.452,0.648192,0,-0.120706,0.001094,0,-0.081093,-0.000332,0,0.097153,-0.00032,160,0
514,387.943085,0.005859,-0.011914,0.994434,3.785345,-1.936614,1.634997,0,40,26.452,0.648192,0,-0.132618,0.002616,0,-0.066913,-0.002836,0,0.105302,-0.003182,160,0
515,387.948094,-0.009766,-0.004102,0.99834,-4.661118,2.824796,0.54135,0,40,26.452,0.648192,0,-0.114545,-0.001665,0,-0.091618,0.004707,0,0.108014,-0.002075,160,0
516,387.953047,-0.021484,-0.023633,1.002246,2.985154,0.718788,0.103891,0,40,26.452,0.648192,0,-0.102418,0.000088,0,-0.086083,-0.002004,0,0.108528,-0.001624,160,0
517,387.958037,0.001953,0.003711,1.002246,1.029131,-2.394442,0.32262,0,40,26.452,0.648192,0,-0.115118,0.002893,0,-0.079271,-0.000345,0,0.110138,-0.001876,160,0
518,387.963017,0.017578,0.031055,0.99834,-2.527275,-0.471565,-2.083402,0,40,26.452,0.648192,0,-0.124476,0.001281,0,-0.079108,0.002758,0,0.099763,0.000789,160,0
519,387.967997,0.017578,-0.000195,0.99834,0.49567,-0.563131,-1.427214,0,40,26.452,0.648192,0,-0.134244,0.001429,0,-0.076505,0.000102,0,0.092655,0.000201,160,0
520,387.972972,0.013672,-0.027539,0.99834,-1.727084,-2.02818,1.853726,0,40,26.452,0.648192,0,-0.149631,0.002815,0,-0.095896,0.002177,0,0.101878,-0.003364,160,0
521,387.977993,-0.005859,-0.01582,0.990527,-1.104713,6.578985,0.760079,0,40,26.452,0.648192,0,-0.114236,-0.004944,0,-0.107507,0.001715,0,0.105694,-0.002272,160,0
522,387.982958,-0.021484,-0.000195,0.99834,2.273872,-1.478786,0.978808,0.424957,40,26.486,0.647206,0,-0.112889,0.002079,0,-0.095995,-0.001314,0,0.110554,-0.002569,160,0
523,387.987956,0.001953,0.011523,0.994434,2.540603,0.535656,-0.771026,0.424957,40,26.486,0.647206,0,-0.111014,0.000308,0,-0.078427,-0.00167,0,0.1067,-0.000682,160,0
524,387.992933,0.017578,0.019336,1.006152,-0.482342,-1.570352,-3.177049,0.424957,40,26.486,0.647206,0,-0.125807,0.002249,0,-0.072884,0.00093,0,0.090888,0.002058,160,0
525,387.997936,0.025391,-0.004102,0.994434,-2.171635,-3.218532,0.54135,0.424957,40,26.486,0.647206,0,-0.151996,0.00387,0,-0.085151,0.00249,0,0.093596,-0.001874,160,0
526,388.002908,0.009766,-0.027539,1.002246,-2.705095,-0.746262,2.291185,0.424957,40,26.486,0.647206,0,-0.159369,0.001764,0,-0.109304,0.003124,0,0.104988,-0.003865,160,0
527,388.007896,-0.017578,-0.011914,0.994434,0.49567,5.84646,1.634997,0.424957,40,26.486,0.647206,0,-0.123014,-0.004243,0,-0.111274,0.000344,0,0.113144,-0.003292,160,0
528,388.012868,-0.017578,0.023242,0.990527,3.340794,-2.02818,0.32262,0.424957,40,26.486,0.647206,0,-0.125824,0.002648,0,-0.084919,-0.002323,0,0.114748,-0.00194,160,0
529,388.01785,-0.001953,0.027148,0.99834,1.295861,1.08505,-2.95832,0.424957,40,26.486,0.647206,0,-0.119572,-0.000112,0,-0.067292,-0.000661,0,0.100009,0.001702,160,0
530,388.022823,0.017578,-0.004102,1.010059,-3.149646,-7.155853,-1.427214,0.425053,40,26.486,0.647206,0,-0.161871,0.007375,0,-0.084319,0.003337,0,0.092912,0.000197,160,0
531,388.027815,0.025391,-0.01582,1.006152,-2.082724,3.099493,2.728643,0.425053,40,26.486,0.647206,0,-0.156359,-0.001613,0,-0.100708,0.002521,0,0.106533,-0.004345,160,0
532,388.032818,-0.021484,-0.027539,1.013965,-1.460353,3.374189,1.853726,0.425053,40,26.486,0.647206,0,-0.130776,-0.002032,0,-0.118552,0.002102,0,0.115807,-0.003558,160,0
533,388.037807,-0.021484,0.01543,0.990527,1.651502,-0.196868,0.103891,0.425053,40,26.486,0.647206,0,-0.122872,0.00103,0,-0.103606,-0.000718,0,0.116326,-0.001733,160,0
534,388.042781,-0.013672,0.034961,0.99834,5.919188,-0.929393,-2.95832,0.425053,40,26.486,0.647206,0,-0.12183,0.001662,0,-0.059831,-0.004748,0,0.101611,0.001679,160,0
535,388.047773,-0.001953,-0.000195,1.010059,-5.905861,-4.866713,-1.645944,0.425053,40,26.486,0.647206,0,-0.145064,0.00526,0,-0.089055,0.005776,0,0.093394,0.00042,160,0
536,388.052752,0.033203,-0.027539,1.010059,-3.416377,3.557321,2.291185,0.425053,40,26.486,0.647206,0,-0.140493,-0.002124,0,-0.116636,0.003796,0,0.104802,-0.003863,160,0
537,388.057755,-0.005859,-0.019727,1.013965,2.807333,-0.379999,2.509914,0.425053,40,26.486,0.647206,0,-0.139838,0.001308,0,-0.110067,-0.001681,0,0.117359,-0.004267,160,0
538,388.062724,-0.013672,0.019336,1.010059,3.074064,3.557321,-1.208485,0.424957,40,26.52,0.64707,0,-0.116591,-0.00229,0,-0.086719,-0.002077,0,0.111354,-0.000289,160,0
539,388.067706,-0.013672,0.034961,0.99834,1.829322,-3.218532,-2.520861,0.424957,40,26.52,0.64707,0,-0.126895,0.003695,0,-0.063198,-0.001155,0,0.098795,0.00126,160,0
540,388.072683,0.009766,-0.01582,1.013965,-4.661118,-8.346205,-0.552297,0.424957,40,26.52,0.64707,0,-0.171878,0.008483,0,-0.09238,0.004713,0,0.096047,-0.000763,160,0
541,388.077666,0.033203,-0.027539,0.994434,-3.060736,5.113936,2.072455,0.424957,40,26.52,0.64707,0,-0.159632,-0.003348,0,-0.118386,0.003497,0,0.106374,-0.003656,160,0
542,388.082661,-0.013672,-0.011914,1.025684,7.430661,1.359747,1.416267,0.424957,40,26.52,0.64707,0,-0.147137,-0.000159,0,-0.085732,-0.005886,0,0.113448,-0.003067,160,0
543,388.08768,-0.017578,0.034961,0.986621,7.875212,7.769338,-2.73959,0.424957,40,26.52,0.64707,0,-0.100916,-0.006076,0,-0.031849,-0.00665,0,0.099698,0.001477,160,0
544,388.092634,-0.013672,0.023242,1.006152,-5.63913,-8.620902,-2.520861,0.424957,40,26.52,0.64707,0,-0.137823,0.008485,0,-0.050278,0.005272,0,0.08721,0.001422,160,0
545,388.097633,0.017578,-0.031445,1.017871,-11.329379,-2.211311,1.853726,0.424957,40,26.52,0.64707,0,-0.15555,0.003016,0,-0.118956,0.010717,0,0.096476,-0.003288,160,0
546,388.102601,0.025391,-0.035352,0.978809,2.540603,1.726009,4.259749,0.424957,40,26.52,0.64707,0,-0.157199,-0.000409,0,-0.120541,-0.001376,0,0.117639,-0.006103,160,0
547,388.1076,-0.013672,0.01543,1.006152,10.898156,7.952469,-0.333568,0.424957,40,26.52,0.64707,0,-0.111857,-0.006159,0,-0.059706,-0.009094,0,0.115971,-0.00127,160,0
548,388.112591,-0.013672,0.031055,0.990527,0.40676,0.352525,-2.95832,0.424957,40,26.52,0.64707,0,-0.104452,0.000422,0,-0.044849,-0.000042,0,0.101206,0.001685,160,0
549,388.117565,0.005859,0.003711,0.990527,-9.462266,-12.283525,0.103891,0.424957,40,26.52,0.64707,0,-0.167502,0.011889,0,-0.090017,0.008886,0,0.101723,-0.001529,160,0
550,388.122529,0.037109,-0.035352,1.002246,-6.083681,2.275402,4.259749,0.424957,40,26.52,0.64707,0,-0.170875,-0.000793,0,-0.133974,0.006244,0,0.122868,-0.006176,160,0
551,388.127515,0.009766,-0.008008,1.010059,13.47655,4.381411,2.728643,0.424957,40,26.52,0.64707,0,-0.152678,-0.002758,0,-0.069847,-0.011273,0,0.136473,-0.004763,160,0
552,388.132503,-0.005859,0.023242,1.013965,13.743281,9.234387,-3.833237,0.424957,40,26.52,0.64707,0,-0.104289,-0.00733,0,0.007717,-0.012047,0,0.117353,0.002376,160,0
553,388.137507,0.001953,0.011523,1.017871,-14.796874,-16.495542,0.103891,0.424957,40,26.52,0.64707,0,-0.187061,0.015701,0,-0.061541,0.013342,0,0.117873,-0.001755,160,0
554,388.142492,0.025391,-0.027539,1.017871,-16.308347,2.092271,4.04102,1.70002,40,26.656,0.643976,0,-0.186303,-0.000525,0,-0.153117,0.015301,0,0.138018,-0.006159,160,0
555,388.14748,0.009766,-0.023633,1.021777,9.475594,-1.20409,2.728643,1.70002,40,26.656,0.643976,0,-0.195634,0.002417,0,-0.114832,-0.007467,0,0.151628,-0.004975,160,0
556,388.152451,0.009766,0.023242,1.021777,24.501409,19.306601,-0.552297,1.70002,40,26.656,0.643976,0,-0.103651,-0.016125,0,0.015847,-0.021492,0,0.148883,-0.0015,160,0
557,388.15745,0.005859,0.003711,1.02959,-11.151559,-13.107616,0.103891,1.70002,40,26.656,0.643976,0,-0.171111,0.012633,0,-0.038456,0.01,0,0.149402,-0.002195,160,0
558,388.162431,0.033203,-0.035352,1.013965,-28.666858,-6.514894,5.572125,1.70002,40,26.656,0.643976,0,-0.216282,0.007195,0,-0.19447,0.026374,0,0.177157,-0.008309,160,0
559,388.167419,0.009766,-0.027539,1.025684,12.053988,1.90914,3.166102,1.70002,40,26.656,0.643976,0,-0.21003,-0.0002,0,-0.144682,-0.009509,0,0.192949,-0.00601,160,0
560,388.172399,0.017578,0.027148,1.010059,27.613263,13.629535,0.54135,1.70002,40,26.656,0.643976,0,-0.149108,-0.010853,0,0.003472,-0.024121,0,0.195645,-0.003299,160,0
561,388.177375,0.021484,-0.019727,1.056934,-11.596109,-14.023272,3.166102,1.70002,40,26.656,0.643976,0,-0.226508,0.013819,0,-0.061801,0.010551,0,0.2114,-0.006267,160,0
562,388.182351,0.056641,-0.04707,0.99834,-34.090376,-14.206403,7.759419,-331.500031,40,0,0.8,0,-0.319126,0.014625,0,-0.249384,0.03149,0,0.250011,-0.011616,160,0
563,388.18735,0.005859,-0.008008,1.053027,7.252841,8.1356,3.82229,-331.500031,40,0,0.8,0,-0.279721,-0.005147,0,-0.215135,-0.004827,0,0.269118,-0.00776,160,0
564,388.192341,0.021484,0.027148,1.010059,33.125691,7.403075,1.634997,-331.500031,40,0,0.8,0,-0.250706,-0.00471,0,-0.038898,-0.028636,0,0.277278,-0.005584,160,0
565,388.197337,0.056641,-0.050977,1.072559,-11.062648,-11.459435,6.884501,-331.500031,40,0,0.8,0,-0.32832,0.012292,0,-0.113292,0.010445,0,0.311673,-0.011561,160,0
566,388.202308,0.080078,-0.070508,1.013965,-31.423071,-20.799125,9.071794,-331.500031,40,0,0.8,0,-0.461903,0.021375,0,-0.296398,0.029491,0,0.356769,-0.014481,160,0
567,388.207304,0.001953,0.023242,1.099902,14.988022,11.798223,3.82229,-331.500031,40,0,0.8,0,-0.401965,-0.00749,0,-0.211834,-0.011601,0,0.375865,-0.009251,160,0
568,388.212282,0.021484,0.042773,1.049121,38.193568,-1.845049,2.947373,-331.500031,40,0,0.8,0,-0.417734,0.004526,0,-0.005388,-0.033293,0,0.390537,-0.008539,160,0
569,388.217282,0.103516,-0.082227,1.135059,-16.397258,-18.876247,10.6029,-331.500031,40,0,0.8,0,-0.546829,0.02029,0,-0.116781,0.015125,0,0.443552,-0.017296,160,0
570,388.222247,0.080078,-0.090039,1.053027,-23.95462,-22.172608,6.009584,-333.200012,40,0,0.8,0,-0.684546,0.024128,0,-0.26947,0.022786,0,0.47339,-0.012903,160,0
571,388.227244,-0.013672,0.054492,1.15459,20.856092,25.166799,3.82229,-333.200012,40,0,0.8,0,-0.551309,-0.018113,0,-0.145419,-0.017185,0,0.49249,-0.010879,160,0
572,388.232208,0.025391,0.04668,1.103809,29.747107,-18.967813,6.447043,-333.200012,40,0,0.8,0,-0.65159,0.021101,0,0.018952,-0.026092,0,0.524493,-0.014075,160,0
573,388.237195,0.138672,-0.097852,1.174121,-31.956533,-23.362961,11.040359,-333.200012,40,0,0.8,0,-0.812091,0.026057,0,-0.173982,0.029102,0,0.579551,-0.019653,160,0
574,388.242177,0.052734,-0.093945,1.12334,0.317849,-6.148631,3.166102,-333.200012,40,0,0.8,0,-0.85739,0.011351,0,-0.205968,0.001161,0,0.595324,-0.011628,160,0
575,388.247189,-0.037109,0.10918,1.15459,38.28248,12.622314,7.10323,-333.200012,40,0,0.8,0,-0.776817,-0.005592,0,0.023887,-0.033575,0,0.630926,-0.016248,160,0
576,388.252169,0.064453,-0.008008,1.181934,4.052076,-34.076135,15.414947,-333.200012,40,0,0.8,0,-0.963529,0.036464,0,0.040363,-0.003818,0,0.707692,-0.026024,160,0
577,388.257157,0.166016,-0.129102,1.174121,-25.466091,-34.80866,7.978148,-333.200012,40,0,0.8,0,-1.1881,0.038671,0,-0.131549,0.023142,0,0.747487,-0.018792,160,0
578,388.26214,-0.013672,-0.04707,1.181934,21.389552,31.576389,6.665772,0,40,0,0.754,0,-1.020306,-0.020433,0,-0.041867,-0.018374,0,0.780703,-0.017881,160,0
579,388.267125,-0.044922,0.101367,1.18584,26.724161,-22.905134,13.227653,0,40,0,0.754,0,-1.112475,0.027755,0,0.124848,-0.024193,0,0.846643,-0.025673,160,0
580,388.272104,0.154297,-0.070508,1.236621,-34.534926,-51.107332,16.508593,0,40,0,0.754,0,-1.409614,0.054441,0,-0.070827,0.030632,0,0.928839,-0.030257,160,0
581,388.277102,0.115234,-0.125195,1.189746,-0.482342,2.641665,4.04102,0,40,0,0.754,0,-1.42771,0.007662,0,-0.116502,0.001234,0,0.949036,-0.017483,160,0
582,388.282071,-0.076172,0.031055,1.228809,31.347488,3.557321,11.259088,0,40,0,0.754,0,-1.376312,0.006504,0,0.048437,-0.027694,0,1.004982,-0.025823,160,0
583,388.287055,0.044922,0.038867,1.232715,-11.062648,-45.247135,20.445721,0,40,0,0.754,0,-1.606965,0.050704,0,0.0054,0.009616,0,1.106884,-0.036866,160,0
584,388.292032,0.181641,-0.113477,1.256152,-20.753855,-33.98457,7.10323,0,40,0,0.754,0,-1.823999,0.042391,0,-0.135008,0.019054,0,1.142237,-0.023387,160,0
585,388.297025,0.001953,-0.039258,1.228809,35.526267,12.256052,4.478478,0,40,0,0.754,0,-1.752655,0.00154,0,0.028002,-0.031198,0,1.164598,-0.020951,160,0
586,388.302016,-0.041016,0.058398,1.27959,3.963165,-38.379718,23.070474,329.800018,40,26.384001,0.3,0,-1.918907,0.046889,0,0.065165,-0.003913,0,1.279742,-0.042028,160,0
587,388.307019,0.177734,-0.082227,1.314746,-39.247162,-47.26158,13.008923,329.800018,40,26.384001,0.3,0,-2.1968,0.05658,0,-0.156845,0.035345,0,1.344826,-0.0324,160,0
588,388.311994,0.126953,-0.070508,1.295215,16.410585,10.699436,2.072455,329.800018,40,26.384001,0.3,0,-2.17016,0.005814,0,-0.09802,-0.013637,0,1.355136,-0.021092,160,0
589,388.316982,-0.064453,0.050586,1.283496,17.388596,-34.167701,20.664451,329.800018,40,26.384001,0.3,0,-2.305098,0.04591,0,0.003889,-0.015202,0,1.458211,-0.042,160,0
590,388.321955,0.099609,-0.01582,1.345996,-59.963229,-37.372494,17.60224,329.800018,40,26.384001,0.3,0,-2.505224,0.050103,0,-0.298062,0.054409,0,1.545747,-0.040016,160,0
591,388.326951,0.177734,-0.113477,1.338184,-30.178331,12.805445,-2.083402,329.800018,40,26.384001,0.3,0,-2.479836,0.006138,0,-0.481431,0.029697,0,1.535338,-0.019256,160,0
592,388.331929,0.009766,0.007617,1.240527,-8.395344,-11.825698,8.196877,329.800018,40,26.384001,0.3,0,-2.525668,0.027952,0,-0.51809,0.010943,0,1.576142,-0.030591,160,0
593,388.336918,0.009766,-0.000195,1.228809,-57.56265,-16.861804,17.82097,329.800018,40,26.384001,0.3,0,-2.596229,0.03284,0,-0.800684,0.055823,0,1.665051,-0.041911,160,0
594,388.341882,0.177734,-0.133008,1.146777,-54.628619,-22.264173,-0.771026,334.899994,40,26.792,0.3,0,-2.752388,0.038644,0,-1.112752,0.055441,0,1.661223,-0.022388,160,0
595,388.346885,0.068359,-0.066602,1.033496,-4.127658,11.431961,7.32196,334.899994,40,26.792,0.3,0,-2.705004,0.008908,0,-1.152974,0.011651,0,1.697855,-0.031374,160,0
596,388.351874,-0.064453,0.07793,0.947559,-14.263413,8.776559,14.10257,334.899994,40,26.792,0.3,0,-2.616188,0.010605,0,-1.182886,0.020705,0,1.768213,-0.039457,160,0
597,388.35686,0.087891,-0.04707,0.90459,-31.867621,-27.025584,3.603561,334.899994,40,26.792,0.3,0,-2.772894,0.042943,0,-1.35469,0.037267,0,1.78618,-0.028713,160,0
598,388.361857,0.150391,-0.090039,0.834277,-25.377181,-6.423328,4.259749,334.899994,40,26.792,0.3,0,-2.860164,0.025573,0,-1.516296,0.032732,0,1.807466,-0.029698,160,0
599,388.366837,-0.021484,-0.004102,0.678027,-11.329379,20.222258,4.697207,334.899994,40,26.792,0.3,0,-2.728693,0.001403,0,-1.56521,0.020814,0,1.830858,-0.030483,160,0
600,388.371808,-0.009766,0.038867,0.650684,6.097009,-3.218532,3.82229,334.899994,40,26.792,0.3,0,-2.720782,0.021803,0,-1.500589,0.005155,0,1.849859,-0.029832,160,0
601,388.376804,0.072266,-0.000195,0.611621,12.676359,12.256052,8.415607,334.899994,40,26.792,0.3,0,-2.69077,0.00809,0,-1.428226,-0.001091,0,1.891903,-0.035229,160,0
602,388.381784,0.048828,0.034961,0.568652,-14.974695,-2.577573,7.540689,-2.55003,40,26.18,0.65438,0,-2.721443,0.021249,0,-1.467847,0.023315,0,1.929456,-0.034837,160,0
603,388.386773,0.009766,0.019336,0.553027,-2.794005,6.853682,2.509914,-2.55003,40,26.18,0.65438,0,-2.67726,0.01271,0,-1.45776,0.012615,0,1.941978,-0.029743,160,0
604,388.391744,0.041016,0.003711,0.533496,11.876167,10.699436,1.853726,-2.55003,40,26.18,0.65438,0,-2.638819,0.009085,0,-1.386736,-0.000683,0,1.951192,-0.029185,160,0
605,388.39673,0.060547,-0.000195,0.525684,7.519571,1.268181,2.509914,-2.55003,40,26.18,0.65438,0,-2.662857,0.017484,0,-1.34059,0.002797,0,1.963707,-0.030047,160,0
606,388.401704,-0.041016,0.031055,0.513965,-13.729953,12.988576,6.009584,-2.55003,40,26.18,0.65438,0,-2.548904,0.00646,0,-1.374754,0.021579,0,1.993598,-0.034129,160,0
607,388.406722,-0.005859,0.019336,0.474902,-3.416377,-1.112524,8.415607,-2.55003,40,26.18,0.65438,0,-2.533026,0.018655,0,-1.365878,0.012517,0,2.035828,-0.037238,160,0
608,388.411692,0.111328,0.019336,0.588184,-7.417333,-13.840141,1.853726,-2.55003,40,26.18,0.65438,0,-2.662081,0.030663,0,-1.379777,0.016106,0,2.045041,-0.030495,160,0
609,388.416682,0.060547,-0.035352,0.619434,-12.12957,2.000706,5.572125,-2.55003,40,26.18,0.65438,0,-2.675269,0.016931,0,-1.454031,0.020736,0,2.072846,-0.034778,160,0
610,388.421664,-0.033203,-0.035352,0.65459,-7.061692,13.171707,4.04102,-6.800079,40,26.247999,0.662608,0,-2.57214,0.006462,0,-1.501371,0.016644,0,2.092978,-0.033455,160,0
611,388.426654,-0.013672,0.031055,0.775684,-9.017715,-14.481099,12.134005,-6.800079,40,26.247999,0.662608,0,-2.620142,0.030929,0,-1.519419,0.018477,0,2.153527,-0.042776,160,0
612,388.431641,0.087891,0.050586,0.849902,0.94022,-30.138815,-0.114838,-6.800079,40,26.247999,0.662608,0,-2.794942,0.045813,0,-1.479903,0.009511,0,2.152954,-0.029941,160,0
613,388.436627,0.048828,-0.054883,0.943652,-4.127658,17.109027,1.634997,-6.800079,40,26.247999,0.662608,0,-2.713472,0.004013,0,-1.51411,0.014173,0,2.161106,-0.031887,160,0
614,388.441591,-0.033203,-0.035352,1.010059,-2.971826,4.015149,13.008923,-6.800079,40,26.247999,0.662608,0,-2.66262,0.015085,0,-1.532796,0.013294,-0.446907,2.225683,-0.050939,199,-39
615,388.446587,0.087891,0.058398,1.111621,35.081713,-43.415825,2.947373,-6.800079,40,26.247999,0.662608,0,-2.893263,0.058086,0,-1.326633,-0.021353,-0.446907,2.240408,-0.040608,199,-39
616,388.451556,0.076172,0.058398,1.131152,19.166799,-11.093173,-2.302132,-6.800079,40,26.247999,0.662608,0,-2.956845,0.030323,0,-1.201674,-0.008337,-0.446907,2.228968,-0.034951,199,-39
617,388.456546,-0.080078,-0.035352,1.170215,-8.750985,34.781185,9.727982,-6.800079,40,26.247999,0.662608,0,-2.737043,-0.011244,0,-1.249162,0.016357,-0.446907,2.277511,-0.048227,199,-39
618,388.461538,0.037109,0.023242,1.189746,38.815942,-43.598956,12.134005,0.849915,40,26.247999,0.647308,0,-2.948106,0.058629,0,-1.040074,-0.026612,-0.446907,2.338084,-0.051593,199,-39
619,388.466535,0.154297,0.089648,1.228809,42.461255,-21.348518,-2.302132,0.849915,40,26.247999,0.647308,0,-3.086129,0.040175,0,-0.792173,-0.031524,-0.446907,2.32658,-0.036314,199,-39
620,388.47151,-0.025391,-0.008008,1.174121,-13.285402,33.407702,9.290524,0.849915,40,26.247999,0.647308,0,-2.891862,-0.008965,0,-0.855075,0.017563,-0.446907,2.372801,-0.0491,199,-39
621,388.476513,-0.103516,-0.031445,1.162402,14.721293,-13.107616,10.82163,0.849915,40,26.247999,0.647308,0,-2.901283,0.031693,0,-0.787123,-0.007352,-0.446907,2.426941,-0.051459,199,-39
622,388.481488,0.111328,0.10918,1.205371,64.599882,-43.690522,7.759419,0.849915,40,26.247999,0.647308,0,-3.135802,0.060019,0,-0.425281,-0.053405,-0.446907,2.465544,-0.048791,199,-39
623,388.486473,0.076172,0.050586,1.189746,-0.926893,14.636756,4.915937,0.849915,40,26.247999,0.647308,0,-3.068826,0.008651,0,-0.409317,0.003666,-0.446907,2.49005,-0.046156,199,-39
624,388.491458,-0.115234,-0.097852,1.174121,-22.354236,-0.654696,6.009584,0.849915,40,26.247999,0.647308,0,-3.011243,0.021594,0,-0.551315,0.023357,-0.446907,2.520008,-0.047719,199,-39
625,388.496439,-0.009766,0.003711,1.213184,42.639075,-16.678673,16.071133,0.849915,40,26.247999,0.647308,0,-3.070176,0.035989,0,-0.33531,-0.034869,-0.882355,2.600058,-0.065453,198,-38
626,388.50141,0.126953,0.07793,1.181934,18.277698,-7.064287,2.291185,0,40,26.247999,0.649008,0,-3.128489,0.028006,0,-0.215577,-0.014445,-0.882355,2.611448,-0.051182,198,-38
627,388.506394,-0.060547,-0.07832,1.178027,-22.087505,-1.936614,-1.645944,0,40,26.247999,0.649008,0,-3.095785,0.023303,0,-0.35071,0.021723,-0.882355,2.603244,-0.046945,198,-38
628,388.511381,-0.052734,-0.050977,1.178027,32.592232,-25.652101,8.415607,0,40,26.247999,0.649008,0,-3.18333,0.04461,0,-0.204736,-0.027013,-0.882355,2.645213,-0.058067,198,-38
629,388.516386,0.068359,0.070117,1.18584,23.434487,-2.760705,6.447043,0,40,26.247999,0.649008,0,-3.199084,0.024743,0,-0.062536,-0.020014,-0.882355,2.67748,-0.056456,198,-38
630,388.521359,-0.013672,-0.039258,1.189746,-23.687889,10.607871,-6.23926,0,40,26.247999,0.649008,0,-3.120098,0.012525,0,-0.192695,0.022017,-0.882355,2.646452,-0.042738,198,-38
631,388.526353,-0.044922,-0.113477,1.127246,33.570244,-33.801439,-0.333568,0,40,26.247999,0.649008,0,-3.249849,0.052186,0,-0.066383,-0.028832,-0.882355,2.644787,-0.048899,198,-38
632,388.531351,0.021484,0.038867,1.181934,40.416323,12.622314,6.447043,0,40,26.247999,0.649008,0,-3.17228,0.011132,0,0.148017,-0.036303,-0.882355,2.677009,-0.056449,198,-38
633,388.53633,-0.029297,0.042773,1.135059,-16.041616,12.530748,-6.45799,0,40,26.247999,0.649008,0,-3.077736,0.010552,0,0.083054,0.013419,-0.882355,2.644854,-0.042486,198,-38
634,388.5413,-0.009766,-0.090039,1.131152,10.009055,-25.102708,-6.895448,-0.849915,40,26.18,0.65098,0,-3.176663,0.044084,0,0.098904,-0.009425,-0.882355,2.610584,-0.04155,198,-38
635,388.546309,0.033203,0.003711,1.178027,45.484201,4.289846,-0.771026,-0.849915,40,26.18,0.65098,0,-3.144813,0.018211,0,0.325456,-0.041965,-0.882355,2.606722,-0.047909,198,-38
636,388.551263,-0.017578,0.034961,1.209277,-17.375269,39.359464,-1.427214,-0.849915,40,26.18,0.65098,0,-2.92325,-0.013939,0,0.249372,0.013422,-1.398017,2.599651,-0.054323,205,-45
637,388.556255,-0.080078,-0.086133,1.115527,-2.794005,-3.67636,-7.114177,-0.849915,40,26.18,0.65098,0,-2.891392,0.023394,0,0.201684,0.00103,-1.398017,2.564137,-0.047872,205,-45
638,388.561238,0.029297,0.038867,1.174121,68.423019,-0.379999,-3.614508,-0.849915,40,26.18,0.65098,0,-2.88319,0.02046,0,0.5521,-0.063565,-1.398017,2.546126,-0.051286,205,-45
639,388.56622,0.029297,0.097461,1.220996,-6.794962,13.53797,-1.864673,-0.849915,40,26.18,0.65098,0,-2.805778,0.007774,0,0.547164,0.00211,-1.398017,2.536837,-0.052988,205,-45
640,388.571213,-0.080078,-0.101758,1.170215,-34.090376,25.807758,-6.895448,-0.849915,40,26.18,0.65098,0,-2.62976,-0.004162,0,0.338198,0.027388,-1.398017,2.502408,-0.047239,205,-45
641,388.57621,-0.001953,-0.04707,1.115527,56.24233,6.121157,-4.270696,-0.849915,40,26.18,0.65098,0,-2.579943,0.01267,0,0.597039,-0.053249,-1.398017,2.481067,-0.04969,205,-45
642,388.58118,0.068359,0.128711,1.197559,34.992805,5.02237,-6.45799,-0.85001,40,26.18,0.65098,0,-2.560307,0.013491,0,0.80929,-0.036187,-1.398017,2.448971,-0.046951,205,-45
643,388.586192,-0.041016,-0.027539,1.197559,-39.336074,22.328266,-9.73893,-0.85001,40,26.18,0.65098,0,-2.416776,-0.002613,0,0.597966,0.030153,-1.398017,2.400159,-0.042834,205,-45
644,388.591152,-0.056641,-0.093945,1.064746,14.365652,13.263272,-5.145614,-0.85001,40,26.18,0.65098,0,-2.312149,0.004567,0,0.627712,-0.016919,-1.398017,2.374637,-0.047288,205,-45
645,388.596154,0.060547,0.116992,1.127246,50.552078,4.930805,-7.770366,-0.85001,40,26.18,0.65098,0,-2.293146,0.011706,0,0.916564,-0.050514,-1.398017,2.33577,-0.043996,205,-45
646,388.601122,0.033203,0.034961,1.213184,-37.02441,3.282624,-13.2386,-0.85001,40,26.18,0.65098,0,-2.271718,0.012995,0,0.73895,0.027151,-1.398017,2.27,-0.037352,205,-45
647,388.606112,-0.001953,-0.156445,1.099902,-16.575078,8.044034,-6.895448,-0.85001,40,26.18,0.65098,0,-2.214717,0.008442,0,0.592783,0.010326,-1.890761,2.235592,-0.050394,203,-43
648,388.611087,-0.017578,0.066211,1.049121,70.9125,28.64629,-7.989095,-0.85001,40,26.18,0.65098,0,-2.050242,-0.010685,0,0.964334,-0.068615,-1.890761,2.195846,-0.048694,203,-43
649,388.616081,0.044922,0.179492,1.18584,3.607525,6.121157,-14.550975,-0.85001,40,26.18,0.65098,0,-2.020614,0.008765,0,1.036974,-0.010388,-1.890761,2.123178,-0.040807,203,-43
650,388.621067,0.060547,-0.133008,1.174121,-54.806439,-25.377404,-12.582412,0.849915,40,26.247999,0.647308,0,-2.15282,0.037175,0,0.711284,0.042862,-1.890761,2.060442,-0.041993,203,-43
651,388.626062,-0.005859,-0.125195,1.068652,27.702174,45.769054,-10.832577,0.849915,40,26.247999,0.647308,0,-1.907923,-0.026621,0,0.794862,-0.029724,-1.890761,2.006334,-0.04307,203,-43
652,388.631038,-0.037109,0.132617,1.135059,36.859919,19.76443,-14.332246,0.849915,40,26.247999,0.647308,0,-1.782818,-0.004801,0,1.018749,-0.039279,-1.890761,1.935017,-0.038409,203,-43
653,388.636044,0.091797,-0.000195,1.209277,-32.845632,-39.844766,-14.769705,0.849915,40,26.247999,0.647308,0,-1.99906,0.048727,0,0.847631,0.022746,-1.890761,1.861079,-0.036919,203,-43
654,388.641012,0.068359,-0.156445,1.09209,-11.5072,18.024683,-13.894787,0.849915,40,26.247999,0.647308,0,-1.921392,-0.002316,0,0.725409,0.004978,-1.890761,1.79205,-0.036871,203,-43
655,388.646009,-0.091797,0.050586,1.080371,38.549209,44.029309,-10.395118,0.849915,40,26.247999,0.647308,0,-1.653852,-0.026877,0,0.93009,-0.040134,-1.890761,1.740106,-0.039811,203,-43
656,388.650978,-0.013672,0.081836,1.166309,-13.552133,-35.358053,-11.707494,0.849915,40,26.247999,0.647308,0,-1.811172,0.0435,0,0.884871,0.005649,-1.890761,1.681931,-0.037624,203,-43
657,388.65598,0.177734,-0.144727,1.131152,-16.930718,-29.955684,-20.01921,0.849915,40,26.247999,0.647308,0,-2.010976,0.040181,0,0.741172,0.0096,-2.360586,1.581795,-0.034082,201,-41
658,388.660949,-0.013672,-0.050977,1.056934,11.787258,57.214754,-11.707494,0,40,26.18,0.64928,0,-1.708643,-0.038001,0,0.773273,-0.015685,-2.360586,1.52362,-0.041974,201,-41
659,388.665928,-0.169922,0.113086,1.09209,-13.729953,11.24883,-12.363683,0,40,26.18,0.64928,0,-1.576549,0.00119,0,0.741694,0.006804,-2.360586,1.462062,-0.040427,201,-41
660,388.670933,0.134766,-0.035352,1.150684,-21.820776,-77.111956,-20.675398,0,40,26.18,0.64928,0,-1.996067,0.081228,0,0.614484,0.014752,-2.360586,1.358581,-0.030278,201,-41
661,388.675919,0.115234,-0.133008,1.107715,-12.574121,34.414923,-18.488103,0,40,26.18,0.64928,0,-1.853803,-0.017091,0,0.497571,0.007499,-2.360586,1.266399,-0.031282,201,-41
662,388.680912,-0.216797,0.007617,1.076465,-7.239512,75.894133,-12.801141,0,40,26.18,0.64928,0,-1.381637,-0.056584,0,0.460082,0.003106,-2.360586,1.202483,-0.036345,201,-41
663,388.685893,-0.064453,0.070117,1.107715,5.563548,-63.010859,-16.082082,0,40,26.18,0.64928,0,-1.658589,0.066566,0,0.509503,-0.008412,-2.360586,1.122379,-0.03179,201,-41
664,388.690884,0.169922,-0.039258,1.107715,-0.482342,-18.143723,-26.58109,0,40,26.18,0.64928,0,-1.798809,0.028391,0,0.487899,-0.002985,-2.360586,0.989712,-0.018943,201,-41
665,388.695868,-0.162109,-0.062695,1.095996,-24.04353,67.195402,-14.769705,0,40,26.18,0.64928,0,-1.391983,-0.048921,0,0.340826,0.018603,-2.360586,0.9161,-0.030284,201,-41
666,388.700836,-0.287109,0.011523,1.072559,6.363739,-18.326854,-12.363683,1.699924,40,26.384001,0.645064,0,-1.363253,0.025511,0,0.373195,-0.008159,-2.360586,0.854677,-0.031946,201,-41
667,388.705831,0.087891,0.027148,1.115527,29.035825,-46.162791,-25.924902,1.699924,40,26.384001,0.645064,0,-1.61372,0.051551,0,0.523556,-0.028994,-2.360586,0.725182,-0.015937,201,-41
668,388.710811,0.029297,-0.031445,1.119434,-30.88961,40.458251,-18.269375,1.699924,40,26.384001,0.645064,0,-1.411783,-0.02545,0,0.354447,0.024482,-2.818953,0.634201,-0.029083,200,-40
669,388.71578,-0.337891,-0.031445,1.064746,-28.933587,40.27512,-16.51954,1.699924,40,26.384001,0.645064,0,-1.074583,-0.027645,0,0.195906,0.023882,-2.818953,0.552115,-0.02977,200,-40
670,388.720769,-0.068359,0.066211,1.056934,42.016705,-66.490349,-19.144291,1.699924,40,26.384001,0.645064,0,-1.367884,0.067573,0,0.427433,-0.039651,-2.818953,0.456605,-0.025688,200,-40
671,388.725759,0.162109,0.042773,1.107715,-11.329379,-1.295655,-23.300149,1.699924,40,26.384001,0.645064,0,-1.422963,0.011065,0,0.383204,0.007211,-2.818953,0.340337,-0.019712,200,-40
672,388.730752,-0.169922,-0.07832,1.080371,-58.718482,64.540002,-16.082082,1.699924,40,26.384001,0.645064,0,-1.026684,-0.049154,0,0.058447,0.050834,-2.818953,0.260039,-0.02615,200,-40
673,388.735739,-0.220703,-0.023633,1.037402,18.366608,-26.29306,-15.425894,1.699924,40,26.384001,0.645064,0,-1.06093,0.030352,0,0.138472,-0.016995,-2.818953,0.18311,-0.025763,200,-40
674,388.740714,0.138672,0.10918,1.041309,32.770049,-48.360366,-21.550314,1.699924,40,26.316,0.645336,0,-1.344953,0.051592,0,0.341507,-0.030981,-2.818953,0.075897,-0.017852,200,-40
675,388.745711,0.013672,-0.031445,1.056934,-41.292097,39.908857,-24.612526,1.699924,40,26.316,0.645336,0,-1.140747,-0.026863,0,0.120918,0.03519,-2.818953,-0.047092,-0.012928,200,-40
676,388.750698,-0.228516,-0.070508,0.99834,5.385728,8.501862,-18.269375,1.699924,40,26.316,0.645336,0,-0.995346,-0.00047,0,0.116508,-0.005513,-2.818953,-0.138201,-0.018299,200,-40
677,388.755678,0.052734,0.10918,0.974902,49.485159,-33.068915,-20.01921,1.699924,40,26.316,0.645336,0,-1.171848,0.037039,0,0.405423,-0.046014,-2.818953,-0.237897,-0.015074,200,-40
678,388.760661,0.185547,0.066211,1.033496,-26.888654,2.73323,-24.175067,1.699924,40,26.316,0.645336,0,-1.2213,0.006141,0,0.295021,0.021405,-2.818953,-0.358361,-0.00904,200,-40
679,388.765653,-0.123047,-0.117383,0.982715,-14.352325,26.265585,-21.112856,1.699924,40,26.316,0.645336,0,-1.028769,-0.015739,0,0.171635,0.011327,-3.208564,-0.463756,-0.016215,194,-34
680,388.770622,-0.091797,0.054492,0.908496,60.065463,-32.336387,-17.613187,1.699924,40,26.316,0.645336,0,-1.137024,0.036157,0,0.490484,-0.055841,-3.208564,-0.551276,-0.018658,194,-34
681,388.775602,0.150391,0.159961,0.959277,-0.837982,-30.505077,-21.987774,1.699924,40,26.316,0.645336,0,-1.341765,0.035988,0,0.550272,-0.00311,-3.208564,-0.660775,-0.012548,194,-34
682,388.780598,0.021484,-0.074414,1.017871,-58.096115,22.236701,-23.956337,16.149998,40,27.676001,0.610996,0,-1.228407,-0.010829,0,0.227144,0.049113,-3.208564,-0.780461,-0.008816,194,-34
683,388.785595,-0.119141,-0.070508,0.974902,30.902939,-7.338984,-17.613187,16.149998,40,27.676001,0.610996,0,-1.203446,0.014806,0,0.348028,-0.029398,-3.208564,-0.868474,-0.014229,194,-34
684,388.790577,0.072266,0.152148,0.99834,48.507147,-47.810973,-22.206503,16.149998,40,27.676001,0.610996,0,-1.458863,0.051908,0,0.647115,-0.046848,-3.208564,-0.979107,-0.007874,194,-34
685,388.795567,0.111328,0.01543,1.064746,-41.736647,16.376502,-27.018549,16.149998,40,27.676001,0.610996,0,-1.408117,-0.004461,0,0.440893,0.033344,-3.208564,-1.11393,-0.000953,194,-34
686,388.800545,-0.091797,-0.117383,1.002246,-3.683107,10.699436,-20.894126,16.149998,40,27.676001,0.610996,0,-1.305095,-0.000226,0,0.370422,0.000628,-3.208564,-1.217941,-0.005914,194,-34
687,388.805533,-0.009766,0.101367,1.013965,53.397204,-20.70756,-20.894126,16.149998,40,27.676001,0.610996,0,-1.391933,0.027788,0,0.672508,-0.051293,-3.208564,-1.322161,-0.004459,194,-34
688,388.810525,0.115234,0.058398,1.056934,-24.399169,-14.66423,-26.79982,16.149998,40,27.676001,0.610996,0,-1.497216,0.023249,0,0.568771,0.017322,-3.208564,-1.455945,0.003594,194,-34
689,388.815504,-0.041016,-0.183789,1.02959,-26.888654,14.54519,-27.237279,16.149998,40,27.676001,0.610996,0,-1.395786,-0.002949,0,0.35779,0.020967,-3.208564,-1.59156,0.005945,194,-34
690,388.820477,-0.064453,-0.000195,0.982715,55.264318,-11.734132,-15.644622,38.675022,40,29.41,0.55901,0,-1.414197,0.020113,0,0.626961,-0.052604,-3.540879,-1.66936,-0.009748,189,-29
691,388.825453,0.064453,0.187305,0.990527,13.387641,-23.546092,-23.518879,38.675022,40,29.41,0.55901,0,-1.544803,0.031333,0,0.764986,-0.017024,-3.540879,-1.78639,0.000132,189,-29
692,388.83045,0.044922,-0.086133,1.021777,-58.629573,16.742764,-28.987112,38.675022,40,29.41,0.55901,0,-1.466409,-0.004373,0,0.432959,0.048141,-3.540879,-1.931239,0.00788,189,-29
693,388.835429,-0.072266,-0.148633,0.959277,17.388596,-1.570352,-18.269375,38.675022,40,29.41,0.55901,0,-1.43007,0.011354,0,0.45117,-0.018324,-3.540879,-2.022202,-0.002073,189,-29
694,388.840415,0.021484,0.14043,0.951465,55.886689,-19.425641,-17.831917,38.675022,40,29.41,0.55901,0,-1.522767,0.027583,0,0.784144,-0.054245,-3.540879,-2.111112,-0.00129,189,-29
695,388.845398,0.060547,0.054492,0.959277,-23.154429,0.718788,-26.36236,38.675022,40,29.41,0.55901,0,-1.531844,0.010067,0,0.686495,0.015413,-3.540879,-2.242476,0.009477,189,-29
696,388.850379,-0.044922,-0.160352,0.924121,-25.466091,4.106714,-25.487444,38.675022,40,29.41,0.55901,0,-1.477901,0.006734,0,0.483512,0.018848,-3.540879,-2.369429,0.010334,189,-29
697,388.855378,-0.013672,0.027148,0.900684,29.391466,-9.353427,-15.207164,38.675022,40,29.41,0.55901,0,-1.504807,0.018668,0,0.637239,-0.030098,-3.540879,-2.445449,0.00063,189,-29
698,388.860355,0.064453,0.120898,0.93584,0.40676,-8.712467,-20.456668,39.525032,40,30.837999,0.551598,0,-1.562893,0.018514,0,0.686785,-0.00515,-3.540879,-2.547262,0.007549,189,-29
699,388.865337,-0.009766,-0.121289,0.896777,-27.066474,9.600649,-27.893467,39.525032,40,30.837999,0.551598,0,-1.497066,0.002073,0,0.491284,0.02019,-3.540879,-2.686227,0.017277,189,-29
700,388.870324,-0.041016,-0.082227,0.865527,5.652458,-7.338984,-19.363021,39.525032,40,30.837999,0.551598,0,-1.50037,0.016879,0,0.475322,-0.008251,-3.540879,-2.782791,0.009692,189,-29
701,388.8753,0.044922,0.152148,0.865527,10.898156,-5.599238,-14.113517,39.525032,40,30.837999,0.551598,0,-1.536003,0.01561,0,0.596572,-0.013675,-3.540879,-2.85302,0.005175,189,-29
702,388.880293,0.029297,0.023242,0.869434,-11.596109,0.627222,-24.175067,39.525032,40,30.837999,0.551598,0,-1.533102,0.010156,0,0.544795,0.006316,-3.540879,-2.973726,0.017397,189,-29
703,388.88527,-0.048828,-0.156445,0.830371,-24.399169,8.868125,-24.393797,39.525032,40,30.837999,0.551598,0,-1.451224,0.002393,0,0.34208,0.018904,-3.540879,-3.095134,0.019321,189,-29
704,388.890284,0.009766,0.007617,0.830371,7.786301,-15.305189,-16.30081,39.525032,40,30.837999,0.551598,0,-1.51903,0.023961,0,0.380872,-0.009454,-3.540879,-3.176866,0.011988,189,-29
705,388.895264,0.052734,0.101367,0.857715,5.741368,-7.979943,-17.613187,39.525032,40,30.837999,0.551598,0,-1.57019,0.017926,0,0.453982,-0.00818,-3.540879,-3.264579,0.014587,189,-29
706,388.900245,-0.017578,-0.043164,0.838184,-7.239512,12.89701,-21.769044,46.325016,40,33.116001,0.528886,0,-1.483651,-0.000897,0,0.392433,0.003578,-3.540879,-3.373011,0.020453,189,-29
707,388.905233,-0.033203,-0.07832,0.826465,-16.663987,-5.599238,-22.206503,46.325016,40,33.116001,0.528886,0,-1.481223,0.015227,0,0.266694,0.01268,-3.540879,-3.483777,0.022457,189,-29
708,388.910228,0.072266,0.058398,0.861621,7.252841,-12.741354,-14.332246,46.325016,40,33.116001,0.528886,0,-1.565508,0.022048,0,0.327435,-0.008615,-3.540879,-3.555367,0.015211,189,-29
709,388.915209,0.013672,0.050586,0.834277,8.942133,6.762116,-15.425894,46.325016,40,33.116001,0.528886,0,-1.52475,0.004744,0,0.393127,-0.010548,-3.540879,-3.632203,0.017429,189,-29
710,388.920206,-0.044922,-0.039258,0.818652,-12.485211,7.677772,-22.425233,46.325016,40,33.116001,0.528886,0,-1.450095,0.003423,0,0.307284,0.00875,-3.540879,-3.744262,0.026323,189,-29
711,388.925175,0.005859,-0.01582,0.838184,-13.463223,-5.782369,-18.925563,46.325016,40,33.116001,0.528886,0,-1.468129,0.015296,0,0.229563,0.010146,-3.815899,-3.838303,0.020132,184,-24
712,388.930186,0.083984,0.070117,0.834277,9.742324,-5.049844,-12.144953,46.325016,40,33.116001,0.528886,0,-1.521275,0.015027,0,0.309829,-0.010665,-3.815899,-3.899161,0.013881,184,-24
713,388.935128,-0.017578,0.027148,0.806934,5.741368,5.205501,-15.863352,46.325016,40,33.116001,0.528886,0,-1.47289,0.00574,0,0.348518,-0.007443,-3.815899,-3.977558,0.018869,184,-24
714,388.940176,-0.052734,-0.035352,0.791309,-14.619054,18.665642,-20.23794,59.499931,40,35.598,0.492608,0,-1.338166,-0.006947,0,0.253053,0.010991,-3.815899,-4.079719,0.024877,184,-24
715,388.945128,0.041016,0.007617,0.834277,-6.617142,-9.170296,-15.863352,59.499931,40,35.598,0.492608,0,-1.390938,0.017713,0,0.221266,0.00423,-3.815899,-4.158274,0.021393,184,-24
716,388.950117,0.056641,0.058398,0.81084,2.807333,4.015149,-11.270035,59.499931,40,35.598,0.492608,0,-1.386917,0.006179,0,0.262165,-0.00428,-3.815899,-4.2145,0.017367,184,-24
717,388.955081,-0.037109,0.011523,0.771777,-1.460353,12.622314,-14.769705,59.499931,40,35.598,0.492608,0,-1.291847,-0.001996,0,0.258142,-0.000528,-3.815899,-4.287817,0.022056,184,-24
718,388.960199,-0.025391,-0.035352,0.799121,-13.907773,11.981354,-17.613187,59.499931,40,35.598,0.492608,0,-1.205354,-0.002041,0,0.166137,0.010977,-3.815899,-4.377962,0.026292,184,-24
719,388.965064,0.060547,0.031055,0.81084,-9.817907,3.374189,-13.2386,59.499931,40,35.598,0.492608,0,-1.208228,0.00549,0,0.132244,0.007644,-3.815899,-4.442367,0.022611,184,-24
720,388.970185,0.037109,0.042773,0.760059,-9.640086,-1.112524,-8.864012,59.499931,40,35.598,0.492608,0,-1.222274,0.009504,0,0.104436,0.007683,-3.815899,-4.48776,0.018663,184,-24
721,388.975034,-0.025391,0.003711,0.756152,-4.216568,23.610183,-13.01987,59.499931,40,35.598,0.492608,0,-1.082958,-0.013043,0,0.084392,0.00309,-3.815899,-4.550893,0.023897,184,-24
722,388.980157,-0.013672,-0.000195,0.771777,-8.306434,16.742764,-14.988434,56.099892,40,37.604,0.491384,0,-0.97949,-0.007773,0,0.040353,0.006967,-4.010705,-4.627679,0.02431,177,-17
723,388.984978,0.083984,0.050586,0.760059,-13.907773,6.212723,-7.114177,56.099892,40,37.604,0.491384,0,-0.985306,0.001457,0,0.000036,0.012137,-4.010705,-4.661976,0.016543,177,-17
724,388.989965,0.037109,0.027148,0.71709,-9.195536,11.340395,-7.989095,56.099892,40,37.604,0.491384,0,-0.940497,-0.00333,0,-0.030763,0.008239,-4.010705,-4.701818,0.018016,177,-17
725,388.99495,-0.013672,0.027148,0.732715,-6.883872,26.082454,-8.426554,56.099892,40,37.604,0.491384,0,-0.79395,-0.017218,0,-0.050164,0.006358,-4.010705,-4.743825,0.019061,177,-17
726,388.999959,0.029297,0.042773,0.74834,-10.618098,19.489732,-8.864012,56.099892,40,37.604,0.491384,0,-0.704531,-0.012089,0,-0.079794,0.009823,-4.010705,-4.788224,0.020139,177,-17
727,389.004941,0.080078,0.058398,0.713184,-18.08655,25.533061,-3.833237,56.099892,40,37.604,0.491384,0,-0.616582,-0.017977,0,-0.135578,0.01673,-4.010705,-4.807322,0.015137,177,-17
728,389.009925,0.060547,0.04668,0.68584,-15.419246,11.24883,-1.208485,56.099892,40,37.604,0.491384,0,-0.590176,-0.005696,0,-0.183386,0.014736,-4.010705,-4.813345,0.012472,177,-17
729,389.014914,0.029297,0.062305,0.720996,-12.929762,39.725726,-4.051967,56.099892,40,37.604,0.491384,0,-0.403288,-0.031852,0,-0.210936,0.012756,-4.010705,-4.83356,0.015732,177,-17
730,389.019893,0.064453,0.066211,0.724902,-17.375269,30.386037,-2.302132,51.000118,40,39.678001,0.493288,0,-0.284296,-0.024532,0,-0.257987,0.016964,-4.010705,-4.845022,0.01406,177,-17
731,389.024875,0.103516,0.070117,0.68584,-26.444102,31.851085,3.603561,51.000118,40,39.678001,0.493288,0,-0.184284,-0.026509,0,-0.345001,0.025485,-4.010705,-4.827069,0.007625,177,-17
732,389.029877,0.080078,0.066211,0.68584,-24.04353,21.870437,3.82229,51.000118,40,39.678001,0.493288,0,-0.120188,-0.018246,0,-0.422186,0.023929,-4.010705,-4.80795,0.007129,177,-17
733,389.034843,0.076172,0.07793,0.71709,-22.532057,33.590833,2.947373,51.000118,40,39.678001,0.493288,0,0.004594,-0.029346,0,-0.485385,0.023052,-4.159674,-4.793313,0.005761,173,-13
734,389.039825,0.091797,0.070117,0.713184,-26.088463,41.099209,5.353396,51.000118,40,39.678001,0.493288,0,0.15681,-0.036961,0,-0.570172,0.026747,-4.159674,-4.766643,0.002869,173,-13
735,389.044806,0.099609,0.074023,0.666309,-29.555957,40.000423,9.727982,51.000118,40,39.678001,0.493288,0,0.293825,-0.036958,0,-0.666082,0.030443,-4.159674,-4.718188,-0.002389,173,-13
736,389.049792,0.115234,0.097461,0.693652,-26.266283,19.581297,10.384171,51.000118,40,39.678001,0.493288,0,0.322043,-0.019336,0,-0.732994,0.028039,-4.159674,-4.666412,-0.003799,173,-13
737,389.054801,0.103516,0.081836,0.701465,-28.044486,34.964316,7.32196,51.000118,40,39.678001,0.493288,0,0.434291,-0.033544,0,-0.818384,0.030187,-4.159674,-4.629737,-0.001104,173,-13
738,389.05979,0.091797,0.070117,0.709277,-26.799743,47.325671,12.352735,46.750069,40,41.344002,0.495097,0,0.613432,-0.045582,0,-0.903564,0.029695,-4.159674,-4.568109,-0.007233,173,-13
739,389.064769,0.080078,0.07793,0.681934,-25.999553,47.14254,16.727321,46.750069,40,41.344002,0.49507,0,0.794615,-0.046687,0,-0.977435,0.029513,-4.159674,-4.484824,-0.012977,173,-13
